,jspsychID,trial_num,stimulus,time_elapse,causal_rating,cause_rt,animacy_rating,anim_rt,trial_rt,time_elapse.1,subject_id,vid_num,ball A,outcome,cf
0,mh46p2b523yy1qu,1,14_p_out_out.mp4,94265.0,100,6681.599999999628,100,10141.0,10952.699999999257,94265.0,7,14,inanimate,out,out
1,mh46p2b523yy1qu,2,16_a_out_out.mp4,132102.0,21,34845.90000000037,100,15766.800000000743,36082.0,132102.0,7,16,animate,out,out
2,mh46p2b523yy1qu,3,23_a_out_in.mp4,150682.0,82,9083.799999998882,100,15836.5,16574.699999999255,150682.0,7,23,animate,out,in
3,mh46p2b523yy1qu,4,18_p_out_out.mp4,169449.0,1,14967.5,30,17985.900000000373,18512.800000000745,169449.0,7,18,inanimate,out,out
4,mh46p2b523yy1qu,5,08_a_in_in.mp4,180499.0,1,5761.0,68,9469.0,10536.800000000743,180499.0,7,8,animate,in,in
5,mh46p2b523yy1qu,6,21_a_out_in.mp4,200582.0,38,17915.200000001118,100,19047.5,19578.20000000112,200582.0,7,21,animate,out,in
6,mh46p2b523yy1qu,7,04_p_in_out.mp4,211953.0,100,4658.300000000745,55,9570.0,10117.200000001118,211953.0,7,4,inanimate,in,out
7,mh46p2b523yy1qu,8,08_p_in_in.mp4,228175.0,1,9340.199999999257,8,14883.099999999627,15718.099999999627,228175.0,7,8,inanimate,in,in
8,mh46p2b523yy1qu,9,21_p_out_in.mp4,246286.0,75,8652.800000000745,5,16148.800000000743,16606.700000001118,246286.0,7,21,inanimate,out,in
9,mh46p2b523yy1qu,10,02_p_in_out.mp4,262358.0,95,9609.900000000373,64,15034.799999998882,15569.299999998882,262358.0,7,2,inanimate,in,out
10,mh46p2b523yy1qu,11,05_a_in_out.mp4,270948.0,100,3180.4000000003725,100,4478.300000000745,8084.900000000372,270948.0,7,5,animate,in,out
11,mh46p2b523yy1qu,12,11_a_in_in.mp4,299303.0,41,26389.099999999627,100,16176.099999999627,27600.0,299303.0,7,11,animate,in,in
12,mh46p2b523yy1qu,13,11_p_in_in.mp4,311571.0,44,8977.400000000373,57,10426.400000000373,11014.5,311571.0,7,11,inanimate,in,in
13,mh46p2b523yy1qu,14,05_p_in_out.mp4,319948.0,100,4116.699999999255,1,5665.5,7123.699999999255,319948.0,7,5,inanimate,in,out
14,mh46p2b523yy1qu,15,12_a_in_in.mp4,336314.0,42,7514.300000000745,77,14168.800000000743,15105.199999999257,336314.0,7,12,animate,in,in
15,mh46p2b523yy1qu,16,12_p_in_in.mp4,349229.0,43,6327.800000000745,42,10914.5,11409.599999999627,349229.0,7,12,inanimate,in,in
16,mh46p2b523yy1qu,17,03_a_in_out.mp4,355561.0,100,4116.0,100,5310.199999999255,5828.299999998882,355561.0,7,3,animate,in,out
17,mh46p2b523yy1qu,18,07_a_in_in.mp4,368513.0,1,7920.5999999996275,100,11206.599999999627,11685.599999999627,368513.0,7,7,animate,in,in
18,mh46p2b523yy1qu,19,24_a_out_in.mp4,384639.0,89,15045.0,100,11465.800000000743,15620.900000000373,384639.0,7,24,animate,out,in
19,mh46p2b523yy1qu,20,01_p_in_out.mp4,394468.0,42,4403.099999999628,64,8311.900000000373,8824.0,394468.0,7,1,inanimate,in,out
20,mh46p2b523yy1qu,21,20_a_out_in.mp4,404822.0,89,4911.199999999255,100,8885.0,9350.299999998882,404822.0,7,20,animate,out,in
21,mh46p2b523yy1qu,22,07_p_in_in.mp4,419654.0,1,10127.5,23,12407.799999998882,13577.89999999851,419654.0,7,7,inanimate,in,in
22,mh46p2b523yy1qu,23,14_a_out_out.mp4,426640.0,100,4112.89999999851,100,5215.0,6231.799999998882,426640.0,7,14,animate,out,out
23,mh46p2b523yy1qu,24,02_a_in_out.mp4,442069.0,51,11355.099999999627,100,12671.199999999257,13425.099999999627,442069.0,7,2,animate,in,out
24,mh46p2b523yy1qu,25,09_a_in_in.mp4,452969.0,59,6985.599999999628,100,8825.400000000373,9647.300000000743,452969.0,7,9,animate,in,in
25,mh46p2b523yy1qu,26,06_a_in_out.mp4,466534.0,100,6901.4000000003725,100,12026.599999999627,12560.599999999627,466534.0,7,6,animate,in,out
26,mh46p2b523yy1qu,27,17_p_out_out.mp4,479531.0,1,3754.7999999988815,53,5747.0,12492.599999999627,479531.0,7,17,inanimate,out,out
27,mh46p2b523yy1qu,28,09_p_in_in.mp4,495537.0,53,6352.0,45,14341.099999999627,14992.300000000743,495537.0,7,9,inanimate,in,in
28,mh46p2b523yy1qu,29,19_a_out_in.mp4,504222.0,100,4695.300000000745,100,5901.200000001118,6681.300000000745,504222.0,7,19,animate,out,in
29,mh46p2b523yy1qu,30,20_p_out_in.mp4,515706.0,100,5886.60000000149,33,10281.900000000373,10727.800000000743,515706.0,7,20,inanimate,out,in
30,mh46p2b523yy1qu,31,01_a_in_out.mp4,530674.0,59,10314.400000000373,100,12670.099999999627,13213.800000000743,530674.0,7,1,animate,in,out
31,mh46p2b523yy1qu,32,06_p_in_out.mp4,541193.0,100,7227.5,23,8781.5,9264.300000000743,541193.0,7,6,inanimate,in,out
32,mh46p2b523yy1qu,33,03_p_in_out.mp4,562903.0,96,10829.199999999257,19,16432.39999999851,20456.099999999627,562903.0,7,3,inanimate,in,out
33,mh46p2b523yy1qu,34,23_p_out_in.mp4,576499.0,90,9494.200000001118,1,11476.400000000373,12091.200000001118,576499.0,7,23,inanimate,out,in
34,mh46p2b523yy1qu,35,13_p_out_out.mp4,584642.0,100,4353.799999998882,1,6103.5,6626.699999999255,584642.0,7,13,inanimate,out,out
35,mh46p2b523yy1qu,36,10_p_in_in.mp4,594791.0,52,5402.0,1,7927.5999999996275,8637.5,594791.0,7,10,inanimate,in,in
36,mh46p2b523yy1qu,37,18_a_out_out.mp4,608310.0,1,9985.5,100,11206.400000000373,11763.800000000743,608310.0,7,18,animate,out,out
37,mh46p2b523yy1qu,38,15_a_out_out.mp4,619913.0,25,9466.200000001118,100,10515.10000000149,11097.900000000373,619913.0,7,15,animate,out,out
38,mh46p2b523yy1qu,39,15_p_out_out.mp4,631966.0,29,4716.299999998882,10,9534.799999998882,10549.0,631966.0,7,15,inanimate,out,out
39,mh46p2b523yy1qu,40,10_a_in_in.mp4,643291.0,13,6902.0,77,8959.10000000149,9570.300000000743,643291.0,7,10,animate,in,in
40,mh46p2b523yy1qu,41,19_p_out_in.mp4,655212.0,86,9763.89999999851,7,10622.0,11159.199999999257,655212.0,7,19,inanimate,out,in
41,mh46p2b523yy1qu,42,13_a_out_out.mp4,665379.0,100,5416.800000000745,100,7895.800000000745,8411.800000000745,665379.0,7,13,animate,out,out
42,mh46p2b523yy1qu,43,16_p_out_out.mp4,688938.0,85,9068.400000000373,39,21051.0,21542.0,688938.0,7,16,inanimate,out,out
43,mh46p2b523yy1qu,44,22_p_out_in.mp4,703505.0,53,9554.900000000373,3,11941.900000000373,12557.199999999257,703505.0,7,22,inanimate,out,in
44,mh46p2b523yy1qu,45,24_p_out_in.mp4,712251.0,16,5200.099999999628,5,7640.900000000372,8483.799999998882,712251.0,7,24,inanimate,out,in
45,mh46p2b523yy1qu,46,22_a_out_in.mp4,728043.0,82,11050.699999999257,100,12659.699999999257,14025.900000000373,728043.0,7,22,animate,out,in
46,mh46p2b523yy1qu,47,04_a_in_out.mp4,745780.0,86,10366.699999999257,100,15774.599999999627,17234.599999999627,745780.0,7,4,animate,in,out
47,mh46p2b523yy1qu,48,17_a_out_out.mp4,754435.0,1,4834.9000000003725,100,5961.199999999255,6807.5,754435.0,7,17,animate,out,out
48,bht4czhyag645lg,1,02_p_in_out.mp4,89978.0,100,23199.900000035763,100,24866.5,25487.80000001192,89978.0,8,2,inanimate,in,out
49,bht4czhyag645lg,2,20_a_out_in.mp4,104776.0,1,11023.19999998808,100,12363.099999964235,13030.099999964235,104776.0,8,20,animate,out,in
50,bht4czhyag645lg,3,03_a_in_out.mp4,117438.0,100,9331.19999998808,100,10579.19999998808,11155.19999998808,117438.0,8,3,animate,in,out
51,bht4czhyag645lg,4,12_a_in_in.mp4,127832.0,1,6897.0,100,8467.0,9138.900000035765,127832.0,8,12,animate,in,in
52,bht4czhyag645lg,5,15_p_out_out.mp4,147170.0,1,16253.900000035765,1,18160.0,18835.0,147170.0,8,15,inanimate,out,out
53,bht4czhyag645lg,6,07_p_in_in.mp4,164397.0,1,12195.5,1,14900.600000023842,15474.400000035765,164397.0,8,7,inanimate,in,in
54,bht4czhyag645lg,7,12_p_in_in.mp4,174622.0,1,7627.199999988079,1,9298.399999976158,9965.19999998808,174622.0,8,12,inanimate,in,in
55,bht4czhyag645lg,8,13_p_out_out.mp4,192724.0,100,9850.80000001192,1,17063.80000001192,17849.899999976158,192724.0,8,13,inanimate,out,out
56,bht4czhyag645lg,9,23_p_out_in.mp4,210137.0,100,14407.30000001192,1,15796.30000001192,16405.30000001192,210137.0,8,23,inanimate,out,in
57,bht4czhyag645lg,10,10_p_in_in.mp4,235950.0,1,5712.300000011921,1,10523.5,24804.5,235950.0,8,10,inanimate,in,in
58,bht4czhyag645lg,11,07_a_in_in.mp4,248200.0,1,6718.399999976158,100,10104.5,10746.399999976158,248200.0,8,7,animate,in,in
59,bht4czhyag645lg,12,04_p_in_out.mp4,279624.0,100,26880.89999997616,1,28623.89999997616,29670.80000001192,279624.0,8,4,inanimate,in,out
60,bht4czhyag645lg,13,24_a_out_in.mp4,291531.0,100,9743.80000001192,100,3933.699999988079,10652.80000001192,291531.0,8,24,animate,out,in
61,bht4czhyag645lg,14,01_a_in_out.mp4,298964.0,100,4862.700000047684,100,5826.600000023842,6416.700000047684,298964.0,8,1,animate,in,out
62,bht4czhyag645lg,15,10_a_in_in.mp4,308751.0,1,5902.200000047684,100,7062.0,7784.200000047684,308751.0,8,10,animate,in,in
63,bht4czhyag645lg,16,22_a_out_in.mp4,322092.0,1,10716.799999952316,100,11891.0,12587.899999976158,322092.0,8,22,animate,out,in
64,bht4czhyag645lg,17,18_a_out_out.mp4,340955.0,1,16546.80000001192,100,18018.69999998808,18608.69999998808,340955.0,8,18,animate,out,out
65,bht4czhyag645lg,18,16_a_out_out.mp4,347594.0,1,4413.599999964237,100,5834.800000011921,6386.699999988079,347594.0,8,16,animate,out,out
66,bht4czhyag645lg,19,09_p_in_in.mp4,355539.0,100,5074.699999988079,1,6201.599999964237,6941.699999988079,355539.0,8,9,inanimate,in,in
67,bht4czhyag645lg,20,09_a_in_in.mp4,371398.0,100,4631.199999988079,100,14739.099999964235,15356.19999998808,371398.0,8,9,animate,in,in
68,bht4czhyag645lg,21,23_a_out_in.mp4,385540.0,100,10759.399999976158,100,12305.399999976158,12883.30000001192,385540.0,8,23,animate,out,in
69,bht4czhyag645lg,22,14_a_out_out.mp4,403883.0,21,16135.19999998808,100,11511.299999952316,16836.19999998808,403883.0,8,14,animate,out,out
70,bht4czhyag645lg,23,14_p_out_out.mp4,416272.0,80,6605.600000023842,10,10094.600000023842,10625.5,416272.0,8,14,inanimate,out,out
71,bht4czhyag645lg,24,17_a_out_out.mp4,428287.0,1,10732.599999964235,100,3064.699999988079,11507.599999964235,428287.0,8,17,animate,out,out
72,bht4czhyag645lg,25,08_a_in_in.mp4,443552.0,1,8837.5,82,11658.599999964235,13262.5,443552.0,8,8,animate,in,in
73,bht4czhyag645lg,26,02_a_in_out.mp4,455964.0,32,6822.5,85,10836.400000035765,11407.600000023842,455964.0,8,2,animate,in,out
74,bht4czhyag645lg,27,04_a_in_out.mp4,469977.0,92,9754.5,84,11579.5,12502.5,469977.0,8,4,animate,in,out
75,bht4czhyag645lg,28,06_p_in_out.mp4,478197.0,86,4431.099999964237,13,6433.099999964237,7216.0,478197.0,8,6,inanimate,in,out
76,bht4czhyag645lg,29,16_p_out_out.mp4,494462.0,66,11138.200000047684,19,13675.30000001192,14503.30000001192,494462.0,8,16,inanimate,out,out
77,bht4czhyag645lg,30,05_p_in_out.mp4,508013.0,100,9992.700000047684,1,11492.600000023842,12047.80000001192,508013.0,8,5,inanimate,in,out
78,bht4czhyag645lg,31,13_a_out_out.mp4,515532.0,100,4532.5,100,5633.399999976158,6254.5,515532.0,8,13,animate,out,out
79,bht4czhyag645lg,32,21_a_out_in.mp4,527486.0,72,9038.0,100,10829.899999976158,11449.899999976158,527486.0,8,21,animate,out,in
80,bht4czhyag645lg,33,11_a_in_in.mp4,542024.0,33,10530.600000023842,100,11914.5,12770.69999998808,542024.0,8,11,animate,in,in
81,bht4czhyag645lg,34,11_p_in_in.mp4,553606.0,20,5352.600000023842,1,9729.600000023842,10828.600000023842,553606.0,8,11,inanimate,in,in
82,bht4czhyag645lg,35,20_p_out_in.mp4,562454.0,20,5775.899999976158,22,7911.0,8343.899999976158,562454.0,8,20,inanimate,out,in
83,bht4czhyag645lg,36,01_p_in_out.mp4,571479.0,70,4898.699999988079,14,6916.800000011921,7512.599999964237,571479.0,8,1,inanimate,in,out
84,bht4czhyag645lg,37,17_p_out_out.mp4,582280.0,1,8099.599999964237,1,9439.599999964235,10045.599999964235,582280.0,8,17,inanimate,out,out
85,bht4czhyag645lg,38,18_p_out_out.mp4,595063.0,1,9683.0,1,10821.099999964235,11529.30000001192,595063.0,8,18,inanimate,out,out
86,bht4czhyag645lg,39,05_a_in_out.mp4,601287.0,100,5006.0,100,3504.900000035763,5720.100000023842,601287.0,8,5,animate,in,out
87,bht4czhyag645lg,40,06_a_in_out.mp4,607880.0,67,3836.699999988079,100,4678.799999952316,5338.799999952316,607880.0,8,6,animate,in,out
88,bht4czhyag645lg,41,19_a_out_in.mp4,649333.0,86,38566.10000002384,100,39848.10000002384,40449.19999998808,649333.0,8,19,animate,out,in
89,bht4czhyag645lg,42,24_p_out_in.mp4,658308.0,75,4887.600000023842,14,6848.600000023842,7460.699999988079,658308.0,8,24,inanimate,out,in
90,bht4czhyag645lg,43,08_p_in_in.mp4,670610.0,1,9926.80000001192,1,11215.900000035765,11795.700000047684,670610.0,8,8,inanimate,in,in
91,bht4czhyag645lg,44,15_a_out_out.mp4,677470.0,70,4018.199999988079,100,5560.199999988079,6356.300000011921,677470.0,8,15,animate,out,out
92,bht4czhyag645lg,45,22_p_out_in.mp4,690615.0,36,5065.0,11,12096.0,12891.900000035765,690615.0,8,22,inanimate,out,in
93,bht4czhyag645lg,46,21_p_out_in.mp4,699752.0,35,5439.900000035763,1,7992.0,8625.0,699752.0,8,21,inanimate,out,in
94,bht4czhyag645lg,47,19_p_out_in.mp4,707006.0,28,5077.900000035763,1,6405.900000035763,6998.900000035763,707006.0,8,19,inanimate,out,in
95,bht4czhyag645lg,48,03_p_in_out.mp4,718321.0,100,5316.800000011921,27,9927.899999976158,10557.80000001192,718321.0,8,3,inanimate,in,out
96,26g5jp57pvqxkau,1,18_a_out_out.mp4,125462.0,1,20273.79999999702,100,37417.20000000298,38506.29999999702,125462.0,9,18,animate,out,out
97,26g5jp57pvqxkau,2,17_a_out_out.mp4,144468.0,1,11187.90000000596,100,14834.40000000596,18502.20000000298,144468.0,9,17,animate,out,out
98,26g5jp57pvqxkau,3,24_a_out_in.mp4,183196.0,28,33434.5,100,37207.0,37725.0,183196.0,9,24,animate,out,in
99,26g5jp57pvqxkau,4,04_p_in_out.mp4,215985.0,82,27785.69999999553,1,31846.89999999851,32535.5,215985.0,9,4,inanimate,in,out
100,26g5jp57pvqxkau,5,15_p_out_out.mp4,239062.0,15,15733.39999999851,12,20730.29999999702,21323.19999999553,239062.0,9,15,inanimate,out,out
101,26g5jp57pvqxkau,6,23_a_out_in.mp4,251604.0,70,9024.40000000596,100,10138.60000000149,10538.90000000596,251604.0,9,23,animate,out,in
102,26g5jp57pvqxkau,7,21_a_out_in.mp4,282550.0,69,24349.60000000149,100,28947.30000000447,29442.40000000596,282550.0,9,21,animate,out,in
103,26g5jp57pvqxkau,8,18_p_out_out.mp4,297230.0,1,10665.70000000298,1,12820.89999999851,14178.20000000298,297230.0,9,18,inanimate,out,out
104,26g5jp57pvqxkau,9,09_p_in_in.mp4,316922.0,22,10236.60000000149,37,18244.5,18688.5,316922.0,9,9,inanimate,in,in
105,26g5jp57pvqxkau,10,02_a_in_out.mp4,336414.0,1,15914.10000000149,100,17595.5,18238.39999999851,336414.0,9,2,animate,in,out
106,26g5jp57pvqxkau,11,20_p_out_in.mp4,355074.0,80,15854.39999999851,24,17157.5,17656.69999999553,355074.0,9,20,inanimate,out,in
107,26g5jp57pvqxkau,12,03_p_in_out.mp4,365747.0,100,5093.80000000447,1,9223.30000000447,9920.30000000447,365747.0,9,3,inanimate,in,out
108,26g5jp57pvqxkau,13,12_p_in_in.mp4,376009.0,28,6452.5,23,8052.70000000298,8508.80000000447,376009.0,9,12,inanimate,in,in
109,26g5jp57pvqxkau,14,13_a_out_out.mp4,383455.0,76,5048.79999999702,78,6303.10000000149,6692.20000000298,383455.0,9,13,animate,out,out
110,26g5jp57pvqxkau,15,13_p_out_out.mp4,395416.0,28,5223.39999999851,1,9629.89999999851,10458.19999999553,395416.0,9,13,inanimate,out,out
111,26g5jp57pvqxkau,16,07_a_in_in.mp4,408745.0,15,6379.5,85,12092.29999999702,12824.39999999851,408745.0,9,7,animate,in,in
112,26g5jp57pvqxkau,17,05_a_in_out.mp4,455824.0,100,42914.19999999553,79,45687.5,46075.59999999404,455824.0,9,5,animate,in,out
113,26g5jp57pvqxkau,18,07_p_in_in.mp4,471240.0,1,9754.80000000447,18,13504.5,14412.70000000298,471240.0,9,7,inanimate,in,in
114,26g5jp57pvqxkau,19,20_a_out_in.mp4,573589.0,25,100862.0,81,8587.60000000149,101595.10000000148,573589.0,9,20,animate,out,in
115,26g5jp57pvqxkau,20,10_a_in_in.mp4,587279.0,1,10205.70000000298,81,11615.0,12187.0,587279.0,9,10,animate,in,in
116,26g5jp57pvqxkau,21,12_a_in_in.mp4,596201.0,1,6263.20000000298,100,7471.10000000149,7919.30000000447,596201.0,9,12,animate,in,in
117,26g5jp57pvqxkau,22,21_p_out_in.mp4,606133.0,85,4690.19999999553,1,8727.79999999702,9427.79999999702,606133.0,9,21,inanimate,out,in
118,26g5jp57pvqxkau,23,06_p_in_out.mp4,619469.0,100,4256.20000000298,1,11411.20000000298,12083.40000000596,619469.0,9,6,inanimate,in,out
119,26g5jp57pvqxkau,24,11_p_in_in.mp4,627768.0,1,4901.39999999851,1,6018.60000000149,6544.39999999851,627768.0,9,11,inanimate,in,in
120,26g5jp57pvqxkau,25,08_p_in_in.mp4,721015.0,21,89046.30000000447,1,90729.20000000298,91229.39999999852,721015.0,9,8,inanimate,in,in
121,26g5jp57pvqxkau,26,05_p_in_out.mp4,727367.0,100,3912.29999999702,1,5372.39999999851,5848.5,727367.0,9,5,inanimate,in,out
122,26g5jp57pvqxkau,27,04_a_in_out.mp4,734868.0,100,4383.89999999851,79,5158.79999999702,5748.0,734868.0,9,4,animate,in,out
123,26g5jp57pvqxkau,28,06_a_in_out.mp4,744686.0,100,5115.89999999851,54,8767.30000000447,9065.60000000149,744686.0,9,6,animate,in,out
124,26g5jp57pvqxkau,29,01_a_in_out.mp4,754165.0,41,5706.4000000059605,79,8620.90000000596,8975.0,754165.0,9,1,animate,in,out
125,26g5jp57pvqxkau,30,02_p_in_out.mp4,814889.0,1,3369.0,71,4540.29999999702,60470.39999999851,814889.0,9,2,inanimate,in,out
126,26g5jp57pvqxkau,31,17_p_out_out.mp4,822989.0,1,3914.89999999851,1,5838.20000000298,7347.5,822989.0,9,17,inanimate,out,out
127,26g5jp57pvqxkau,32,22_p_out_in.mp4,832390.0,77,5942.89999999851,20,8410.20000000298,8898.30000000447,832390.0,9,22,inanimate,out,in
128,26g5jp57pvqxkau,33,09_a_in_in.mp4,842836.0,34,5904.79999999702,1,8582.0,9193.0,842836.0,9,9,animate,in,in
129,26g5jp57pvqxkau,34,08_a_in_in.mp4,851131.0,1,4363.29999999702,20,6111.29999999702,6541.59999999404,851131.0,9,8,animate,in,in
130,26g5jp57pvqxkau,35,23_p_out_in.mp4,858604.0,100,4023.5,14,5125.80000000447,5719.80000000447,858604.0,9,23,inanimate,out,in
131,26g5jp57pvqxkau,36,16_a_out_out.mp4,872561.0,1,10627.70000000298,87,11820.5,12203.60000000149,872561.0,9,16,animate,out,out
132,26g5jp57pvqxkau,37,15_a_out_out.mp4,901827.0,1,26732.80000000447,91,28585.0,29011.30000000447,901827.0,9,15,animate,out,out
133,26g5jp57pvqxkau,38,22_a_out_in.mp4,910135.0,94,4766.60000000149,90,7648.0,8055.20000000298,910135.0,9,22,animate,out,in
134,26g5jp57pvqxkau,39,14_p_out_out.mp4,982708.0,92,68757.0,7,70141.0,70535.20000000298,982708.0,9,14,inanimate,out,out
135,26g5jp57pvqxkau,40,03_a_in_out.mp4,988717.0,79,4364.10000000149,81,5167.10000000149,5505.4000000059605,988717.0,9,3,animate,in,out
136,26g5jp57pvqxkau,41,14_a_out_out.mp4,995347.0,87,3384.3000000044703,82,4515.70000000298,4876.10000000149,995347.0,9,14,animate,out,out
137,26g5jp57pvqxkau,42,10_p_in_in.mp4,1002812.0,13,4590.19999999553,8,6806.69999999553,7211.89999999851,1002812.0,9,10,inanimate,in,in
138,26g5jp57pvqxkau,43,11_a_in_in.mp4,1022914.0,22,18229.69999999553,80,19451.79999999702,19848.0,1022914.0,9,11,animate,in,in
139,26g5jp57pvqxkau,44,19_p_out_in.mp4,1034683.0,95,8906.5,8,9863.60000000149,10265.79999999702,1034683.0,9,19,inanimate,out,in
140,26g5jp57pvqxkau,45,19_a_out_in.mp4,1045650.0,93,8099.89999999851,13,9186.0,9713.19999999553,1045650.0,9,19,animate,out,in
141,26g5jp57pvqxkau,46,24_p_out_in.mp4,1053104.0,91,4294.10000000149,17,5248.20000000298,6200.30000000447,1053104.0,9,24,inanimate,out,in
142,26g5jp57pvqxkau,47,01_p_in_out.mp4,1068792.0,91,11382.09999999404,13,12830.19999999553,14934.59999999404,1068792.0,9,1,inanimate,in,out
143,26g5jp57pvqxkau,48,16_p_out_out.mp4,1075935.0,7,4151.69999999553,11,5730.0,6140.19999999553,1075935.0,9,16,inanimate,out,out
144,bwm63az1e5flkrd,1,11_p_in_in.mp4,487213.0,100,21632.5,100,30572.700000047684,32187.5,487213.0,11,11,inanimate,in,in
145,bwm63az1e5flkrd,2,11_a_in_in.mp4,536727.0,6,39554.29999995232,100,46541.0,48748.09999990463,536727.0,11,11,animate,in,in
146,bwm63az1e5flkrd,3,01_a_in_out.mp4,600844.0,100,27301.0,100,60897.20000004768,62093.70000004768,600844.0,11,1,animate,in,out
147,bwm63az1e5flkrd,4,08_p_in_in.mp4,633501.0,1,17189.799999952316,1,30193.29999995232,31887.0,633501.0,11,8,inanimate,in,in
148,bwm63az1e5flkrd,5,04_a_in_out.mp4,651552.0,1,12452.200000047684,100,14621.200000047684,16041.200000047684,651552.0,11,4,animate,in,out
149,bwm63az1e5flkrd,6,05_p_in_out.mp4,669421.0,100,9520.5,1,15521.599999904633,16854.399999976158,669421.0,11,5,inanimate,in,out
150,bwm63az1e5flkrd,7,02_p_in_out.mp4,683126.0,100,8002.200000047684,1,10142.300000071526,12194.5,683126.0,11,2,inanimate,in,out
151,bwm63az1e5flkrd,8,09_a_in_in.mp4,705507.0,100,17486.800000071526,100,19608.5,20861.89999997616,705507.0,11,9,animate,in,in
152,bwm63az1e5flkrd,9,08_a_in_in.mp4,719910.0,1,9554.300000071526,1,11304.800000071526,12637.200000047684,719910.0,11,8,animate,in,in
153,bwm63az1e5flkrd,10,19_a_out_in.mp4,743253.0,100,18201.400000095367,100,20700.80000007153,22081.900000095367,743253.0,11,19,animate,out,in
154,bwm63az1e5flkrd,11,14_a_out_out.mp4,759593.0,100,11574.800000071526,100,13576.900000095367,15075.700000047684,759593.0,11,14,animate,out,out
155,bwm63az1e5flkrd,12,12_a_in_in.mp4,777973.0,1,13304.600000023842,100,15454.199999928474,16611.899999976158,777973.0,11,12,animate,in,in
156,bwm63az1e5flkrd,13,12_p_in_in.mp4,797652.0,100,14427.899999976158,1,16584.899999976158,18413.39999997616,797652.0,11,12,inanimate,in,in
157,bwm63az1e5flkrd,14,10_a_in_in.mp4,834959.0,100,25664.89999997616,49,35350.5,36538.79999995232,834959.0,11,10,animate,in,in
158,bwm63az1e5flkrd,15,22_p_out_in.mp4,854349.0,100,10567.899999976158,1,15644.899999976158,17375.599999904633,854349.0,11,22,inanimate,out,in
159,bwm63az1e5flkrd,16,07_p_in_in.mp4,872936.0,1,11317.600000023842,1,17113.600000023842,18312.700000047684,872936.0,11,7,inanimate,in,in
160,bwm63az1e5flkrd,17,24_p_out_in.mp4,890639.0,1,13173.200000047684,1,15875.800000071526,17179.0,890639.0,11,24,inanimate,out,in
161,bwm63az1e5flkrd,18,18_p_out_out.mp4,914485.0,1,11644.399999976158,53,20268.79999995232,21824.29999995232,914485.0,11,18,inanimate,out,out
162,bwm63az1e5flkrd,19,10_p_in_in.mp4,927340.0,100,8156.299999952316,1,10091.099999904633,11337.399999976158,927340.0,11,10,inanimate,in,in
163,bwm63az1e5flkrd,20,04_p_in_out.mp4,954519.0,1,12819.099999904633,1,23852.39999997616,25166.699999928474,954519.0,11,4,inanimate,in,out
164,bwm63az1e5flkrd,21,23_a_out_in.mp4,976505.0,100,18251.0,100,19786.79999995232,21468.60000002384,976505.0,11,23,animate,out,in
165,bwm63az1e5flkrd,22,15_a_out_out.mp4,990687.0,100,10678.399999976158,100,12370.699999928474,13662.799999952316,990687.0,11,15,animate,out,out
166,bwm63az1e5flkrd,23,21_a_out_in.mp4,1017408.0,1,17430.899999976158,82,23963.0,24955.0,1017408.0,11,21,animate,out,in
167,bwm63az1e5flkrd,24,15_p_out_out.mp4,1053289.0,1,27803.89999997616,8,34043.800000071526,35608.800000071526,1053289.0,11,15,inanimate,out,out
168,bwm63az1e5flkrd,25,07_a_in_in.mp4,1071153.0,1,12729.600000023842,3,14907.300000071526,16092.700000047684,1071153.0,11,7,animate,in,in
169,bwm63az1e5flkrd,26,19_p_out_in.mp4,1090582.0,100,10492.0,1,16633.0,18149.30000007153,1090582.0,11,19,inanimate,out,in
170,bwm63az1e5flkrd,27,24_a_out_in.mp4,1109127.0,1,13660.700000047684,100,15478.100000023842,17023.399999976158,1109127.0,11,24,animate,out,in
171,bwm63az1e5flkrd,28,02_a_in_out.mp4,1130023.0,100,9646.899999976158,97,15799.0,19628.89999997616,1130023.0,11,2,animate,in,out
172,bwm63az1e5flkrd,29,23_p_out_in.mp4,1159421.0,1,21340.60000002384,31,26326.400000095367,27375.80000007153,1159421.0,11,23,inanimate,out,in
173,bwm63az1e5flkrd,30,17_p_out_out.mp4,1177226.0,1,9682.600000023842,1,16164.900000095367,17291.900000095367,1177226.0,11,17,inanimate,out,out
174,bwm63az1e5flkrd,31,03_p_in_out.mp4,1193302.0,100,8630.200000047684,1,12440.0,14549.600000023842,1193302.0,11,3,inanimate,in,out
175,bwm63az1e5flkrd,32,14_p_out_out.mp4,1217462.0,100,14915.899999976158,1,16830.399999976158,22146.599999904636,1217462.0,11,14,inanimate,out,out
176,bwm63az1e5flkrd,33,20_a_out_in.mp4,1236049.0,2,11640.299999952316,76,15401.699999928474,18054.699999928474,1236049.0,11,20,animate,out,in
177,bwm63az1e5flkrd,34,13_p_out_out.mp4,1259273.0,100,15780.5,31,21086.700000047684,22457.400000095367,1259273.0,11,13,inanimate,out,out
178,bwm63az1e5flkrd,35,21_p_out_in.mp4,1277420.0,2,12348.600000023842,6,15303.5,16625.200000047684,1277420.0,11,21,inanimate,out,in
179,bwm63az1e5flkrd,36,20_p_out_in.mp4,1291650.0,1,8843.5,1,12468.5,13713.799999952316,1291650.0,11,20,inanimate,out,in
180,bwm63az1e5flkrd,37,13_a_out_out.mp4,1306089.0,100,10700.100000023842,100,12964.900000095367,14169.400000095367,1306089.0,11,13,animate,out,out
181,bwm63az1e5flkrd,38,16_p_out_out.mp4,1322251.0,100,10785.799999952316,1,13234.899999976158,14391.199999928474,1322251.0,11,16,inanimate,out,out
182,bwm63az1e5flkrd,39,16_a_out_out.mp4,1340868.0,100,15351.899999976158,100,16916.599999904633,18092.699999928474,1340868.0,11,16,animate,out,out
183,bwm63az1e5flkrd,40,03_a_in_out.mp4,1355290.0,100,11089.5,100,12479.400000095367,13645.700000047684,1355290.0,11,3,animate,in,out
184,bwm63az1e5flkrd,41,01_p_in_out.mp4,1369198.0,100,9726.300000071526,62,11662.5,12642.100000023842,1369198.0,11,1,inanimate,in,out
185,bwm63az1e5flkrd,42,09_p_in_in.mp4,1382026.0,100,7278.199999928474,11,10193.799999952316,11311.299999952316,1382026.0,11,9,inanimate,in,in
186,bwm63az1e5flkrd,43,18_a_out_out.mp4,1397442.0,1,10853.5,100,13390.299999952316,15140.199999928474,1397442.0,11,18,animate,out,out
187,bwm63az1e5flkrd,44,05_a_in_out.mp4,1409310.0,100,6818.800000071526,100,8636.300000071526,9843.900000095367,1409310.0,11,5,animate,in,out
188,bwm63az1e5flkrd,45,17_a_out_out.mp4,1425149.0,1,7987.399999976158,94,13447.799999952316,14827.799999952316,1425149.0,11,17,animate,out,out
189,bwm63az1e5flkrd,46,06_a_in_out.mp4,1438697.0,100,8871.399999976158,100,11155.099999904633,12525.599999904633,1438697.0,11,6,animate,in,out
190,bwm63az1e5flkrd,47,22_a_out_in.mp4,1455472.0,1,11291.300000071526,100,13886.200000047684,15499.300000071526,1455472.0,11,22,animate,out,in
191,bwm63az1e5flkrd,48,06_p_in_out.mp4,1472052.0,100,8474.399999976158,34,14859.399999976158,16307.399999976158,1472052.0,11,6,inanimate,in,out
192,9xysvf8aedhv2cn,1,06_p_in_out.mp4,90914.0,100,21604.0,100,31660.69999998808,32427.89999997616,90914.0,13,6,inanimate,in,out
193,9xysvf8aedhv2cn,2,05_a_in_out.mp4,122674.0,100,16195.899999976158,100,23219.89999997616,29748.0,122674.0,13,5,animate,in,out
194,9xysvf8aedhv2cn,3,04_p_in_out.mp4,145697.0,21,16881.399999976158,100,21385.09999996424,22257.19999998808,145697.0,13,4,inanimate,in,out
195,9xysvf8aedhv2cn,4,13_p_out_out.mp4,168873.0,100,17132.80000001192,100,20564.5,21916.5,168873.0,13,13,inanimate,out,out
196,9xysvf8aedhv2cn,5,04_a_in_out.mp4,191233.0,1,16656.5,100,21000.19999998808,21848.39999997616,191233.0,13,4,animate,in,out
197,9xysvf8aedhv2cn,6,02_a_in_out.mp4,211225.0,56,14448.100000023842,100,18112.200000047684,19232.60000002384,211225.0,13,2,animate,in,out
198,9xysvf8aedhv2cn,7,20_a_out_in.mp4,235921.0,83,16576.69999998808,100,21856.80000001192,22928.69999998808,235921.0,13,20,animate,out,in
199,9xysvf8aedhv2cn,8,12_a_in_in.mp4,249816.0,1,9531.899999976158,100,11171.799999952316,12131.799999952316,249816.0,13,12,animate,in,in
200,9xysvf8aedhv2cn,9,17_a_out_out.mp4,263704.0,1,10431.19999998808,99,12582.899999976158,13630.80000001192,263704.0,13,17,animate,out,out
201,9xysvf8aedhv2cn,10,09_p_in_in.mp4,288656.0,87,11870.100000023842,31,22341.80000001192,23189.69999998808,288656.0,13,9,inanimate,in,in
202,9xysvf8aedhv2cn,11,01_p_in_out.mp4,304904.0,60,11601.900000035765,40,14313.900000035765,14985.900000035765,304904.0,13,1,inanimate,in,out
203,9xysvf8aedhv2cn,12,14_a_out_out.mp4,318792.0,100,10548.80000001192,98,12108.100000023842,13380.5,318792.0,13,14,animate,out,out
204,9xysvf8aedhv2cn,13,16_a_out_out.mp4,334896.0,44,13138.80000001192,99,15154.69999998808,15842.899999976158,334896.0,13,16,animate,out,out
205,9xysvf8aedhv2cn,14,16_p_out_out.mp4,352696.0,57,11681.0,22,15000.80000001192,15785.0,352696.0,13,16,inanimate,out,out
206,9xysvf8aedhv2cn,15,07_p_in_in.mp4,370288.0,1,14279.5,5,14927.80000001192,15583.80000001192,370288.0,13,7,inanimate,in,in
207,9xysvf8aedhv2cn,16,06_a_in_out.mp4,380032.0,81,5340.599999964237,100,6940.5,7732.399999976158,380032.0,13,6,animate,in,out
208,9xysvf8aedhv2cn,17,11_p_in_in.mp4,397304.0,55,5389.099999964237,1,15902.099999964235,17013.099999964237,397304.0,13,11,inanimate,in,in
209,9xysvf8aedhv2cn,18,11_a_in_in.mp4,415168.0,9,11311.400000035765,90,16911.5,17599.400000035763,415168.0,13,11,animate,in,in
210,9xysvf8aedhv2cn,19,20_p_out_in.mp4,427095.0,72,8126.300000011921,90,10366.400000035765,11166.100000023842,427095.0,13,20,inanimate,out,in
211,9xysvf8aedhv2cn,20,21_p_out_in.mp4,439375.0,68,7699.399999976158,16,10115.5,11515.799999952316,439375.0,13,21,inanimate,out,in
212,9xysvf8aedhv2cn,21,21_a_out_in.mp4,460255.0,68,16225.5,94,19905.60000002384,20617.400000035763,460255.0,13,21,animate,out,in
213,9xysvf8aedhv2cn,22,03_p_in_out.mp4,477303.0,1,11921.799999952316,93,14233.799999952316,15033.69999998808,477303.0,13,3,inanimate,in,out
214,9xysvf8aedhv2cn,23,22_p_out_in.mp4,495551.0,78,6345.899999976158,24,17017.69999998808,17737.899999976158,495551.0,13,22,inanimate,out,in
215,9xysvf8aedhv2cn,24,08_a_in_in.mp4,509902.0,1,10965.30000001192,5,12189.200000047684,13093.30000001192,509902.0,13,8,animate,in,in
216,9xysvf8aedhv2cn,25,13_a_out_out.mp4,519686.0,100,7370.700000047684,100,8202.600000023842,9522.600000023842,519686.0,13,13,animate,out,out
217,9xysvf8aedhv2cn,26,19_a_out_in.mp4,532030.0,100,10471.80000001192,100,11479.5,12087.600000023842,532030.0,13,19,animate,out,in
218,9xysvf8aedhv2cn,27,01_a_in_out.mp4,545870.0,63,11121.30000001192,100,12241.399999976158,13081.399999976158,545870.0,13,1,animate,in,out
219,9xysvf8aedhv2cn,28,07_a_in_in.mp4,562406.0,14,11634.399999976158,100,13690.100000023842,14522.19999998808,562406.0,13,7,animate,in,in
220,9xysvf8aedhv2cn,29,22_a_out_in.mp4,613822.0,36,47982.79999995232,100,49758.69999998808,50406.89999997616,613822.0,13,22,animate,out,in
221,9xysvf8aedhv2cn,30,23_a_out_in.mp4,627573.0,83,10964.400000035765,99,11932.600000023842,12740.5,627573.0,13,23,animate,out,in
222,9xysvf8aedhv2cn,31,15_a_out_out.mp4,641542.0,100,10945.30000001192,100,11976.69999998808,12961.100000023842,641542.0,13,15,animate,out,out
223,9xysvf8aedhv2cn,32,05_p_in_out.mp4,653909.0,100,5265.199999988079,5,9417.19999998808,11609.399999976158,653909.0,13,5,inanimate,in,out
224,9xysvf8aedhv2cn,33,19_p_out_in.mp4,666150.0,65,7060.399999976158,12,10124.5,10732.69999998808,666150.0,13,19,inanimate,out,in
225,9xysvf8aedhv2cn,34,15_p_out_out.mp4,681845.0,59,10480.0,11,13040.100000023842,13687.80000001192,681845.0,13,15,inanimate,out,out
226,9xysvf8aedhv2cn,35,10_a_in_in.mp4,692925.0,2,6224.399999976158,96,8424.699999988079,9072.599999964235,692925.0,13,10,animate,in,in
227,9xysvf8aedhv2cn,36,24_p_out_in.mp4,709181.0,62,11551.100000023842,13,15358.900000035765,15998.80000001192,709181.0,13,24,inanimate,out,in
228,9xysvf8aedhv2cn,37,24_a_out_in.mp4,724317.0,17,12450.30000001192,95,13682.30000001192,14378.600000023842,724317.0,13,24,animate,out,in
229,9xysvf8aedhv2cn,38,18_a_out_out.mp4,740542.0,1,11014.599999964235,97,13174.80000001192,14215.099999964235,740542.0,13,18,animate,out,out
230,9xysvf8aedhv2cn,39,17_p_out_out.mp4,838853.0,13,93606.10000002384,12,96662.0,97302.19999998808,838853.0,13,17,inanimate,out,out
231,9xysvf8aedhv2cn,40,12_p_in_in.mp4,863692.0,14,20909.80000001192,1,22085.60000002384,22821.60000002384,863692.0,13,12,inanimate,in,in
232,9xysvf8aedhv2cn,41,14_p_out_out.mp4,872788.0,98,4896.100000023842,5,6688.300000011921,7335.899999976158,872788.0,13,14,inanimate,out,out
233,9xysvf8aedhv2cn,42,09_a_in_in.mp4,883428.0,67,5435.100000023842,97,7962.800000011921,8883.100000023842,883428.0,13,9,animate,in,in
234,9xysvf8aedhv2cn,43,08_p_in_in.mp4,895068.0,1,5971.0,6,9002.600000023842,9882.80000001192,895068.0,13,8,inanimate,in,in
235,9xysvf8aedhv2cn,44,23_p_out_in.mp4,907875.0,5,10443.0,5,11354.80000001192,12050.900000035765,907875.0,13,23,inanimate,out,in
236,9xysvf8aedhv2cn,45,02_p_in_out.mp4,919611.0,55,5454.399999976158,2,10198.5,11478.5,919611.0,13,2,inanimate,in,out
237,9xysvf8aedhv2cn,46,18_p_out_out.mp4,927883.0,34,4711.199999988079,3,6351.300000011921,7263.0,927883.0,13,18,inanimate,out,out
238,9xysvf8aedhv2cn,47,03_a_in_out.mp4,936267.0,100,5190.899999976158,99,6238.699999988079,7126.899999976158,936267.0,13,3,animate,in,out
239,9xysvf8aedhv2cn,48,10_p_in_in.mp4,946651.0,54,5784.699999988079,1,7704.900000035763,8376.800000011921,946651.0,13,10,inanimate,in,in
240,m09xkn4vtyo1ll6,1,07_a_in_in.mp4,74039.0,1,12580.69999998808,98,23555.5,25207.69999998808,74039.0,14,7,animate,in,in
241,m09xkn4vtyo1ll6,2,18_a_out_out.mp4,95672.0,3,18407.5,98,20414.0,21378.900000035763,95672.0,14,18,animate,out,out
242,m09xkn4vtyo1ll6,3,19_p_out_in.mp4,111464.0,99,11713.5,14,14071.399999976158,15037.799999952316,111464.0,14,19,inanimate,out,in
243,m09xkn4vtyo1ll6,4,16_p_out_out.mp4,127535.0,2,10548.5,3,13646.69999998808,15067.80000001192,127535.0,14,16,inanimate,out,out
244,m09xkn4vtyo1ll6,5,20_p_out_in.mp4,148616.0,100,17613.30000001192,1,19242.30000001192,20327.400000035763,148616.0,14,20,inanimate,out,in
245,m09xkn4vtyo1ll6,6,10_a_in_in.mp4,167532.0,10,13187.69999998808,100,15780.899999976158,16913.0,167532.0,14,10,animate,in,in
246,m09xkn4vtyo1ll6,7,08_a_in_in.mp4,183357.0,1,11782.0,100,13149.0,14070.799999952316,183357.0,14,8,animate,in,in
247,m09xkn4vtyo1ll6,8,22_p_out_in.mp4,202045.0,100,15610.5,1,17369.19999998808,18184.5,202045.0,14,22,inanimate,out,in
248,m09xkn4vtyo1ll6,9,17_p_out_out.mp4,214477.0,1,9270.600000023842,2,10232.399999976158,10928.5,214477.0,14,17,inanimate,out,out
249,m09xkn4vtyo1ll6,10,07_p_in_in.mp4,229192.0,1,11297.80000001192,2,12363.80000001192,13461.69999998808,229192.0,14,7,inanimate,in,in
250,m09xkn4vtyo1ll6,11,14_p_out_out.mp4,247497.0,36,11482.5,2,15892.19999998808,16801.19999998808,247497.0,14,14,inanimate,out,out
251,m09xkn4vtyo1ll6,12,02_a_in_out.mp4,256538.0,100,5792.5,100,7053.5,8287.600000023842,256538.0,14,2,animate,in,out
252,m09xkn4vtyo1ll6,13,11_p_in_in.mp4,274980.0,100,15649.0,2,17444.399999976158,18189.09999996424,274980.0,14,11,inanimate,in,in
253,m09xkn4vtyo1ll6,14,17_a_out_out.mp4,288239.0,1,9710.0,100,11952.100000023842,12754.0,288239.0,14,17,animate,out,out
254,m09xkn4vtyo1ll6,15,04_p_in_out.mp4,303159.0,100,10963.19999998808,6,12393.80000001192,13166.19999998808,303159.0,14,4,inanimate,in,out
255,m09xkn4vtyo1ll6,16,04_a_in_out.mp4,311641.0,100,5585.5,100,6707.699999988079,7478.5,311641.0,14,4,animate,in,out
256,m09xkn4vtyo1ll6,17,13_a_out_out.mp4,325974.0,94,10133.700000047684,100,11692.600000023842,12330.400000035765,325974.0,14,13,animate,out,out
257,m09xkn4vtyo1ll6,18,03_p_in_out.mp4,345528.0,100,15896.399999976158,1,17227.600000023842,18050.69999998808,345528.0,14,3,inanimate,in,out
258,m09xkn4vtyo1ll6,19,10_p_in_in.mp4,359128.0,10,9291.600000023842,1,12538.5,13346.600000023842,359128.0,14,10,inanimate,in,in
259,m09xkn4vtyo1ll6,20,03_a_in_out.mp4,369350.0,100,5487.099999964237,100,7836.199999988079,9718.399999976158,369350.0,14,3,animate,in,out
260,m09xkn4vtyo1ll6,21,05_p_in_out.mp4,382052.0,100,9262.0,1,11839.0,12448.80000001192,382052.0,14,5,inanimate,in,out
261,m09xkn4vtyo1ll6,22,09_a_in_in.mp4,397602.0,86,11108.600000023842,100,13857.600000023842,14795.700000047684,397602.0,14,9,animate,in,in
262,m09xkn4vtyo1ll6,23,01_p_in_out.mp4,413245.0,100,10633.69999998808,11,12947.69999998808,13889.100000023842,413245.0,14,1,inanimate,in,out
263,m09xkn4vtyo1ll6,24,22_a_out_in.mp4,429504.0,100,11564.19999998808,100,13834.899999976158,14755.0,429504.0,14,22,animate,out,in
264,m09xkn4vtyo1ll6,25,12_p_in_in.mp4,449964.0,1,13412.099999964235,15,18869.30000001192,19706.30000001192,449964.0,14,12,inanimate,in,in
265,m09xkn4vtyo1ll6,26,02_p_in_out.mp4,471464.0,98,17361.099999964237,10,19072.89999997616,19995.89999997616,471464.0,14,2,inanimate,in,out
266,m09xkn4vtyo1ll6,27,20_a_out_in.mp4,484851.0,96,9979.80000001192,100,11516.600000023842,12383.80000001192,484851.0,14,20,animate,out,in
267,m09xkn4vtyo1ll6,28,21_a_out_in.mp4,511122.0,69,21912.80000001192,100,24429.69999998808,25267.69999998808,511122.0,14,21,animate,out,in
268,m09xkn4vtyo1ll6,29,01_a_in_out.mp4,524861.0,85,10386.0,100,12338.0,13236.0,524861.0,14,1,animate,in,out
269,m09xkn4vtyo1ll6,30,12_a_in_in.mp4,534695.0,1,7105.099999964237,100,8490.800000011921,9331.099999964235,534695.0,14,12,animate,in,in
270,m09xkn4vtyo1ll6,31,14_a_out_out.mp4,551410.0,60,13412.69999998808,100,15004.69999998808,15961.69999998808,551410.0,14,14,animate,out,out
271,m09xkn4vtyo1ll6,32,08_p_in_in.mp4,566070.0,1,9757.100000023842,1,12120.19999998808,12907.19999998808,566070.0,14,8,inanimate,in,in
272,m09xkn4vtyo1ll6,33,23_a_out_in.mp4,589454.0,44,20739.19999998808,100,22170.5,23131.09999996424,589454.0,14,23,animate,out,in
273,m09xkn4vtyo1ll6,34,21_p_out_in.mp4,602334.0,80,9562.399999976158,1,11322.399999976158,12376.5,602334.0,14,21,inanimate,out,in
274,m09xkn4vtyo1ll6,35,24_p_out_in.mp4,613736.0,60,6399.699999988079,1,9183.899999976158,9898.599999964235,613736.0,14,24,inanimate,out,in
275,m09xkn4vtyo1ll6,36,23_p_out_in.mp4,629598.0,89,9758.19999998808,1,12954.30000001192,14109.0,629598.0,14,23,inanimate,out,in
276,m09xkn4vtyo1ll6,37,19_a_out_in.mp4,638308.0,81,5701.600000023842,100,7107.400000035763,7956.800000011921,638308.0,14,19,animate,out,in
277,m09xkn4vtyo1ll6,38,16_a_out_out.mp4,653109.0,2,10038.5,100,13520.400000035765,14297.30000001192,653109.0,14,16,animate,out,out
278,m09xkn4vtyo1ll6,39,06_p_in_out.mp4,667634.0,100,11048.80000001192,59,13201.30000001192,14020.700000047684,667634.0,14,6,inanimate,in,out
279,m09xkn4vtyo1ll6,40,06_a_in_out.mp4,674690.0,100,4729.400000035763,100,5635.300000011921,6553.300000011921,674690.0,14,6,animate,in,out
280,m09xkn4vtyo1ll6,41,11_a_in_in.mp4,691242.0,57,11424.899999976158,100,14246.599999964235,15049.099999964235,691242.0,14,11,animate,in,in
281,m09xkn4vtyo1ll6,42,15_p_out_out.mp4,705757.0,1,10105.799999952316,1,11891.19999998808,12761.799999952316,705757.0,14,15,inanimate,out,out
282,m09xkn4vtyo1ll6,43,15_a_out_out.mp4,717450.0,22,5375.800000011921,100,9043.80000001192,10189.599999964235,717450.0,14,15,animate,out,out
283,m09xkn4vtyo1ll6,44,05_a_in_out.mp4,725375.0,100,5008.400000035763,100,6598.600000023842,7421.700000047684,725375.0,14,5,animate,in,out
284,m09xkn4vtyo1ll6,45,18_p_out_out.mp4,735370.0,2,5794.800000011921,1,7186.100000023842,7991.100000023842,735370.0,14,18,inanimate,out,out
285,m09xkn4vtyo1ll6,46,13_p_out_out.mp4,754345.0,47,14742.80000001192,1,16231.599999964235,17222.0,754345.0,14,13,inanimate,out,out
286,m09xkn4vtyo1ll6,47,09_p_in_in.mp4,769711.0,100,10884.599999964235,1,12512.299999952316,13362.5,769711.0,14,9,inanimate,in,in
287,m09xkn4vtyo1ll6,48,24_a_out_in.mp4,783281.0,98,10307.299999952316,100,12086.399999976158,13065.299999952316,783281.0,14,24,animate,out,in
288,b4m437xn8t0f046,1,02_a_in_out.mp4,401344.0,12,42451.5,96,47583.59999999963,49590.199999999255,401344.0,15,2,animate,in,out
289,b4m437xn8t0f046,2,14_a_out_out.mp4,426555.0,100,19146.400000000373,100,24121.69999999925,24943.900000000373,426555.0,15,14,animate,out,out
290,b4m437xn8t0f046,3,19_p_out_in.mp4,456160.0,100,24228.20000000112,1,27770.20000000112,28844.5,456160.0,15,19,inanimate,out,in
291,b4m437xn8t0f046,4,03_a_in_out.mp4,486503.0,2,24900.400000000373,100,27168.5,28320.800000000745,486503.0,15,3,animate,in,out
292,b4m437xn8t0f046,5,18_a_out_out.mp4,514510.0,16,23847.70000000112,100,26515.5,27493.099999999627,514510.0,15,18,animate,out,out
293,b4m437xn8t0f046,6,15_a_out_out.mp4,525485.0,100,5915.099999999628,100,8041.0,8957.200000001118,525485.0,15,15,animate,out,out
294,b4m437xn8t0f046,7,19_a_out_in.mp4,539114.0,100,9104.5,100,11174.599999999627,12121.0,539114.0,15,19,animate,out,in
295,b4m437xn8t0f046,8,12_p_in_in.mp4,569424.0,1,23413.79999999888,1,28342.0,29301.69999999925,569424.0,15,12,inanimate,in,in
296,b4m437xn8t0f046,9,10_p_in_in.mp4,599639.0,77,19032.0,1,28203.5,29189.5,599639.0,15,10,inanimate,in,in
297,b4m437xn8t0f046,10,23_p_out_in.mp4,631204.0,9,17372.900000000373,1,30355.300000000745,31055.800000000745,631204.0,15,23,inanimate,out,in
298,b4m437xn8t0f046,11,13_a_out_out.mp4,656245.0,100,20287.900000000373,100,22233.900000000373,23284.0,656245.0,15,13,animate,out,out
299,b4m437xn8t0f046,12,14_p_out_out.mp4,674590.0,100,10559.200000001118,1,16411.60000000149,17581.5,674590.0,15,14,inanimate,out,out
300,b4m437xn8t0f046,13,06_a_in_out.mp4,684470.0,100,5738.699999999255,100,7171.4000000003725,7871.5999999996275,684470.0,15,6,animate,in,out
301,b4m437xn8t0f046,14,13_p_out_out.mp4,698924.0,100,11726.700000001118,100,12955.099999999627,13695.200000001118,698924.0,15,13,inanimate,out,out
302,b4m437xn8t0f046,15,04_p_in_out.mp4,718685.0,100,15877.700000001118,1,17537.60000000149,18237.70000000112,718685.0,15,4,inanimate,in,out
303,b4m437xn8t0f046,16,15_p_out_out.mp4,737740.0,100,14614.900000000373,1,16287.800000000743,17045.400000000373,737740.0,15,15,inanimate,out,out
304,b4m437xn8t0f046,17,16_a_out_out.mp4,745752.0,100,4845.800000000745,100,7001.800000000745,7749.900000000372,745752.0,15,16,animate,out,out
305,b4m437xn8t0f046,18,23_a_out_in.mp4,755602.0,100,5164.60000000149,100,7082.200000001118,7844.60000000149,755602.0,15,23,animate,out,in
306,b4m437xn8t0f046,19,22_a_out_in.mp4,781380.0,100,22056.10000000149,100,23906.400000000373,25018.70000000112,781380.0,15,22,animate,out,in
307,b4m437xn8t0f046,20,02_p_in_out.mp4,811532.0,99,7072.099999999628,1,28214.39999999851,29144.69999999925,811532.0,15,2,inanimate,in,out
308,b4m437xn8t0f046,21,01_p_in_out.mp4,839679.0,100,17761.300000000745,1,26385.0,27389.19999999925,839679.0,15,1,inanimate,in,out
309,b4m437xn8t0f046,22,22_p_out_in.mp4,883209.0,100,33945.300000000745,1,36977.5,42759.800000000745,883209.0,15,22,inanimate,out,in
310,b4m437xn8t0f046,23,21_p_out_in.mp4,905374.0,100,18116.19999999925,1,20248.19999999925,21156.29999999888,905374.0,15,21,inanimate,out,in
311,b4m437xn8t0f046,24,17_a_out_out.mp4,914097.0,100,5222.299999998882,98,6355.699999999255,7207.799999998882,914097.0,15,17,animate,out,out
312,b4m437xn8t0f046,25,05_a_in_out.mp4,940379.0,100,16320.199999999257,100,23792.599999999627,25524.900000000373,940379.0,15,5,animate,in,out
313,b4m437xn8t0f046,26,20_p_out_in.mp4,966419.0,100,22254.099999999627,100,23817.900000000373,24780.400000000373,966419.0,15,20,inanimate,out,in
314,b4m437xn8t0f046,27,11_a_in_in.mp4,974936.0,100,5858.599999999628,100,7144.599999999628,7996.699999999255,974936.0,15,11,animate,in,in
315,b4m437xn8t0f046,28,08_p_in_in.mp4,1003770.0,1,10201.10000000149,49,27094.10000000149,27576.20000000112,1003770.0,15,8,inanimate,in,in
316,b4m437xn8t0f046,29,11_p_in_in.mp4,1056577.0,99,42849.800000000745,7,50317.300000000745,51047.40000000037,1056577.0,15,11,inanimate,in,in
317,b4m437xn8t0f046,30,12_a_in_in.mp4,1070959.0,1,10599.300000000743,100,12441.300000000743,13118.800000000743,1070959.0,15,12,animate,in,in
318,b4m437xn8t0f046,31,16_p_out_out.mp4,1110736.0,100,24370.69999999925,1,37755.199999999255,38511.0,1110736.0,15,16,inanimate,out,out
319,b4m437xn8t0f046,32,17_p_out_out.mp4,1145512.0,1,21725.599999999627,1,32719.0,33507.09999999963,1145512.0,15,17,inanimate,out,out
320,b4m437xn8t0f046,33,24_p_out_in.mp4,1213198.0,100,60838.0,2,65383.800000000745,66164.40000000037,1213198.0,15,24,inanimate,out,in
321,b4m437xn8t0f046,34,09_a_in_in.mp4,1280489.0,100,64935.800000000745,100,65833.5,66533.5,1280489.0,15,9,animate,in,in
322,b4m437xn8t0f046,35,08_a_in_in.mp4,1312960.0,1,29553.79999999888,100,31063.69999999925,31957.79999999888,1312960.0,15,8,animate,in,in
323,b4m437xn8t0f046,36,24_a_out_in.mp4,1334527.0,100,17668.199999999255,100,18958.099999999627,19550.300000000745,1334527.0,15,24,animate,out,in
324,b4m437xn8t0f046,37,20_a_out_in.mp4,1390834.0,100,54110.59999999963,100,55042.300000000745,55790.5,1390834.0,15,20,animate,out,in
325,b4m437xn8t0f046,38,18_p_out_out.mp4,1410237.0,100,15606.599999999627,1,17111.199999999255,17888.799999998882,1410237.0,15,18,inanimate,out,out
326,b4m437xn8t0f046,39,09_p_in_in.mp4,1427017.0,100,13862.900000000373,1,15282.199999999257,16010.599999999627,1427017.0,15,9,inanimate,in,in
327,b4m437xn8t0f046,40,07_p_in_in.mp4,1444000.0,1,11878.400000000373,1,16046.299999998882,16717.099999999627,1444000.0,15,7,inanimate,in,in
328,b4m437xn8t0f046,41,03_p_in_out.mp4,1459637.0,100,11695.800000000743,64,13228.5,13865.60000000149,1459637.0,15,3,inanimate,in,out
329,b4m437xn8t0f046,42,05_p_in_out.mp4,1485310.0,100,11170.400000000373,13,23990.800000000745,24654.5,1485310.0,15,5,inanimate,in,out
330,b4m437xn8t0f046,43,06_p_in_out.mp4,1545384.0,100,55731.20000000112,15,58641.90000000037,59305.300000000745,1545384.0,15,6,inanimate,in,out
331,b4m437xn8t0f046,44,10_a_in_in.mp4,1554872.0,100,5826.099999999628,100,6745.099999999628,7469.5,1554872.0,15,10,animate,in,in
332,b4m437xn8t0f046,45,21_a_out_in.mp4,1574793.0,100,17986.699999999255,100,18860.79999999888,19663.099999999627,1574793.0,15,21,animate,out,in
333,b4m437xn8t0f046,46,07_a_in_in.mp4,1590939.0,1,12756.299999998882,100,14264.299999998882,14880.299999998882,1590939.0,15,7,animate,in,in
334,b4m437xn8t0f046,47,01_a_in_out.mp4,1607062.0,99,11512.199999999257,100,13718.099999999627,14605.799999998882,1607062.0,15,1,animate,in,out
335,b4m437xn8t0f046,48,04_a_in_out.mp4,1646967.0,100,38035.0,100,38675.199999999255,39385.40000000037,1646967.0,15,4,animate,in,out
336,rbujcoxmek5s7d8,1,13_a_out_out.mp4,147484.0,100,16358.20000001788,100,20696.09999999404,22258.70000001788,147484.0,16,13,animate,out,out
337,rbujcoxmek5s7d8,2,03_a_in_out.mp4,165084.0,100,11221.80000001192,100,14182.5,15836.59999999404,165084.0,16,3,animate,in,out
338,rbujcoxmek5s7d8,3,09_a_in_in.mp4,196402.0,100,24137.59999999404,29,17962.5,29305.09999999404,196402.0,16,9,animate,in,in
339,rbujcoxmek5s7d8,4,23_a_out_in.mp4,218599.0,100,11633.09999999404,79,20316.90000000596,21179.69999998808,218599.0,16,23,animate,out,in
340,rbujcoxmek5s7d8,5,07_p_in_in.mp4,247249.0,1,25545.59999999404,1,21160.80000001192,26886.30000001192,247249.0,16,7,inanimate,in,in
341,rbujcoxmek5s7d8,6,24_p_out_in.mp4,277472.0,100,22785.69999998808,1,27488.90000000596,28213.40000000596,277472.0,16,24,inanimate,out,in
342,rbujcoxmek5s7d8,7,01_p_in_out.mp4,294755.0,100,7888.600000023842,1,15229.20000001788,16016.100000023842,294755.0,16,1,inanimate,in,out
343,rbujcoxmek5s7d8,8,07_a_in_in.mp4,309197.0,1,7237.899999976158,100,12274.09999999404,13176.69999998808,309197.0,16,7,animate,in,in
344,rbujcoxmek5s7d8,9,22_p_out_in.mp4,325216.0,100,6950.799999982119,1,12510.09999999404,14020.29999998212,325216.0,16,22,inanimate,out,in
345,rbujcoxmek5s7d8,10,19_a_out_in.mp4,334816.0,100,5083.59999999404,100,7576.5,8524.799999982119,334816.0,16,19,animate,out,in
346,rbujcoxmek5s7d8,11,03_p_in_out.mp4,351548.0,100,10188.09999999404,1,13307.30000001192,15430.19999998808,351548.0,16,3,inanimate,in,out
347,rbujcoxmek5s7d8,12,06_a_in_out.mp4,364395.0,100,8384.40000000596,100,10009.09999999404,10958.80000001192,364395.0,16,6,animate,in,out
348,rbujcoxmek5s7d8,13,19_p_out_in.mp4,372596.0,100,4813.200000017881,1,6951.0,7682.200000017881,372596.0,16,19,inanimate,out,in
349,rbujcoxmek5s7d8,14,16_p_out_out.mp4,389111.0,78,11823.90000000596,1,14864.09999999404,16254.90000000596,389111.0,16,16,inanimate,out,out
350,rbujcoxmek5s7d8,15,02_p_in_out.mp4,411615.0,100,5369.0,28,11097.90000000596,20995.20000001788,411615.0,16,2,inanimate,in,out
351,rbujcoxmek5s7d8,16,21_a_out_in.mp4,422811.0,100,5249.5,100,8094.599999994039,9182.69999998808,422811.0,16,21,animate,out,in
352,rbujcoxmek5s7d8,17,02_a_in_out.mp4,434567.0,100,5940.0,100,9510.09999999404,10246.69999998808,434567.0,16,2,animate,in,out
353,rbujcoxmek5s7d8,18,14_a_out_out.mp4,444847.0,100,5810.09999999404,100,7996.300000011921,9020.30000001192,444847.0,16,14,animate,out,out
354,rbujcoxmek5s7d8,19,04_p_in_out.mp4,462093.0,100,10586.20000001788,1,15475.20000001788,16232.20000001788,462093.0,16,4,inanimate,in,out
355,rbujcoxmek5s7d8,20,24_a_out_in.mp4,472648.0,100,5761.59999999404,100,9099.09999999404,10043.69999998808,472648.0,16,24,animate,out,in
356,rbujcoxmek5s7d8,21,15_p_out_out.mp4,490021.0,87,9872.19999998808,1,14897.90000000596,15856.40000000596,490021.0,16,15,inanimate,out,out
357,rbujcoxmek5s7d8,22,04_a_in_out.mp4,498970.0,100,5385.0,100,7382.0,8441.59999999404,498970.0,16,4,animate,in,out
358,rbujcoxmek5s7d8,23,18_p_out_out.mp4,511713.0,100,6035.199999988079,1,9877.0,10982.19999998808,511713.0,16,18,inanimate,out,out
359,rbujcoxmek5s7d8,24,06_p_in_out.mp4,778163.0,100,4852.0,26,261025.20000001788,265198.3000000119,778163.0,16,6,inanimate,in,out
360,rbujcoxmek5s7d8,25,12_p_in_in.mp4,809497.0,50,26353.90000000596,1,28911.60000002384,29821.40000000596,809497.0,16,12,inanimate,in,in
361,rbujcoxmek5s7d8,26,01_a_in_out.mp4,817403.0,100,4983.300000011921,100,6258.4000000059605,7145.699999988079,817403.0,16,1,animate,in,out
362,rbujcoxmek5s7d8,27,10_a_in_in.mp4,828016.0,92,6113.0,70,9613.600000023842,10351.40000000596,828016.0,16,10,animate,in,in
363,rbujcoxmek5s7d8,28,14_p_out_out.mp4,839263.0,100,5757.800000011921,1,8391.40000000596,9235.70000001788,839263.0,16,14,inanimate,out,out
364,rbujcoxmek5s7d8,29,18_a_out_out.mp4,845880.0,100,3933.0,100,5028.299999982119,5857.299999982119,845880.0,16,18,animate,out,out
365,rbujcoxmek5s7d8,30,11_p_in_in.mp4,855843.0,79,4424.9000000059605,1,6570.800000011921,8203.40000000596,855843.0,16,11,inanimate,in,in
366,rbujcoxmek5s7d8,31,20_a_out_in.mp4,867697.0,100,6131.09999999404,100,9808.70000001788,10589.09999999404,867697.0,16,20,animate,out,in
367,rbujcoxmek5s7d8,32,15_a_out_out.mp4,884692.0,100,13165.79999998212,99,14381.0,16484.09999999404,884692.0,16,15,animate,out,out
368,rbujcoxmek5s7d8,33,08_p_in_in.mp4,900282.0,1,10011.0,1,13105.40000000596,14574.90000000596,900282.0,16,8,inanimate,in,in
369,rbujcoxmek5s7d8,34,20_p_out_in.mp4,911304.0,100,5387.4000000059605,1,9507.0,10254.80000001192,911304.0,16,20,inanimate,out,in
370,rbujcoxmek5s7d8,35,16_a_out_out.mp4,940147.0,100,23161.70000001788,100,25964.09999999404,26825.80000001192,940147.0,16,16,animate,out,out
371,rbujcoxmek5s7d8,36,23_p_out_in.mp4,970590.0,1,22543.89999997616,1,27947.5,28929.69999998808,970590.0,16,23,inanimate,out,in
372,rbujcoxmek5s7d8,37,17_a_out_out.mp4,979900.0,1,3949.300000011921,100,6491.4000000059605,9050.600000023842,979900.0,16,17,animate,out,out
373,rbujcoxmek5s7d8,38,09_p_in_in.mp4,991868.0,73,4914.699999988079,1,9585.5,10455.09999999404,991868.0,16,9,inanimate,in,in
374,rbujcoxmek5s7d8,39,22_a_out_in.mp4,1015467.0,100,11760.19999998808,100,21489.09999999404,22842.29999998212,1015467.0,16,22,animate,out,in
375,rbujcoxmek5s7d8,40,17_p_out_out.mp4,1022202.0,1,3558.5999999940395,1,5461.800000011921,6224.800000011921,1022202.0,16,17,inanimate,out,out
376,rbujcoxmek5s7d8,41,12_a_in_in.mp4,1033614.0,82,6962.799999982119,100,8872.5,9647.69999998808,1033614.0,16,12,animate,in,in
377,rbujcoxmek5s7d8,42,11_a_in_in.mp4,1046014.0,100,10869.0,100,5799.200000017881,11891.59999999404,1046014.0,16,11,animate,in,in
378,rbujcoxmek5s7d8,43,05_p_in_out.mp4,1055032.0,100,3972.299999982119,1,6213.199999988079,7007.9000000059605,1055032.0,16,5,inanimate,in,out
379,rbujcoxmek5s7d8,44,08_a_in_in.mp4,1062451.0,1,4285.4000000059605,100,5878.0,6658.09999999404,1062451.0,16,8,animate,in,in
380,rbujcoxmek5s7d8,45,13_p_out_out.mp4,1072653.0,100,5401.59999999404,1,7164.299999982119,8188.599999994039,1072653.0,16,13,inanimate,out,out
381,rbujcoxmek5s7d8,46,21_p_out_in.mp4,1080471.0,100,4364.300000011921,1,6488.5,7306.100000023842,1080471.0,16,21,inanimate,out,in
382,rbujcoxmek5s7d8,47,10_p_in_in.mp4,1089565.0,79,5325.9000000059605,1,7568.300000011921,8583.300000011921,1089565.0,16,10,inanimate,in,in
383,rbujcoxmek5s7d8,48,05_a_in_out.mp4,1097298.0,100,3547.2999999821186,100,5625.399999976158,6472.799999982119,1097298.0,16,5,animate,in,out
384,yngh1u01snkzl99,1,16_a_out_out.mp4,292990.0,100,20921.60000000149,100,57434.0,58157.70000000298,292990.0,17,16,animate,out,out
385,yngh1u01snkzl99,2,03_p_in_out.mp4,361277.0,1,22158.39999999851,52,66765.89999999851,67518.70000000298,361277.0,17,3,inanimate,in,out
386,yngh1u01snkzl99,3,15_a_out_out.mp4,421457.0,33,54264.79999999702,100,58367.19999999553,59151.39999999851,421457.0,17,15,animate,out,out
387,yngh1u01snkzl99,4,07_a_in_in.mp4,461900.0,1,18401.20000000298,100,30306.89999999851,39933.0,461900.0,17,7,animate,in,in
388,yngh1u01snkzl99,5,03_a_in_out.mp4,494285.0,100,29140.90000000596,100,30871.0,31864.80000000447,494285.0,17,3,animate,in,out
389,yngh1u01snkzl99,6,05_a_in_out.mp4,514242.0,100,14127.89999999851,100,17531.60000000149,18445.20000000298,514242.0,17,5,animate,in,out
390,yngh1u01snkzl99,7,15_p_out_out.mp4,581675.0,79,43398.70000000298,14,55609.20000000298,66669.10000000149,581675.0,17,15,inanimate,out,out
391,yngh1u01snkzl99,8,09_p_in_in.mp4,609563.0,100,12908.29999999702,50,24446.0,26626.19999999553,609563.0,17,9,inanimate,in,in
392,yngh1u01snkzl99,9,18_p_out_out.mp4,646781.0,1,15117.39999999851,51,36117.0,36949.0,646781.0,17,18,inanimate,out,out
393,yngh1u01snkzl99,10,13_p_out_out.mp4,697729.0,100,21259.59999999404,1,45870.5,49187.39999999851,697729.0,17,13,inanimate,out,out
394,yngh1u01snkzl99,11,19_a_out_in.mp4,737006.0,79,33904.39999999851,100,36546.89999999851,37508.89999999851,737006.0,17,19,animate,out,in
395,yngh1u01snkzl99,12,02_p_in_out.mp4,753652.0,100,10523.60000000149,1,13630.90000000596,15633.70000000298,753652.0,17,2,inanimate,in,out
396,yngh1u01snkzl99,13,14_p_out_out.mp4,787990.0,100,11173.5,16,30300.10000000149,33319.60000000149,787990.0,17,14,inanimate,out,out
397,yngh1u01snkzl99,14,02_a_in_out.mp4,797022.0,100,6253.80000000447,100,7816.10000000149,8777.80000000447,797022.0,17,2,animate,in,out
398,yngh1u01snkzl99,15,24_p_out_in.mp4,833524.0,81,17032.69999999553,1,33580.5,35230.59999999404,833524.0,17,24,inanimate,out,in
399,yngh1u01snkzl99,16,06_a_in_out.mp4,859239.0,100,22020.40000000596,100,23926.5,25448.40000000596,859239.0,17,6,animate,in,out
400,yngh1u01snkzl99,17,11_a_in_in.mp4,871991.0,100,5665.20000000298,100,10593.29999999702,11491.5,871991.0,17,11,animate,in,in
401,yngh1u01snkzl99,18,10_p_in_in.mp4,887575.0,100,8626.59999999404,1,13008.5,14562.09999999404,887575.0,17,10,inanimate,in,in
402,yngh1u01snkzl99,19,23_p_out_in.mp4,932549.0,7,40662.69999999553,1,25454.10000000149,42962.19999999553,932549.0,17,23,inanimate,out,in
403,yngh1u01snkzl99,20,17_a_out_out.mp4,966721.0,1,15486.0,100,18762.10000000149,32662.10000000149,966721.0,17,17,animate,out,out
404,yngh1u01snkzl99,21,08_p_in_in.mp4,986874.0,1,15602.89999999851,1,17525.29999999702,18391.19999999553,986874.0,17,8,inanimate,in,in
405,yngh1u01snkzl99,22,24_a_out_in.mp4,1020432.0,100,31610.29999999702,100,22482.0,32538.5,1020432.0,17,24,animate,out,in
406,yngh1u01snkzl99,23,12_p_in_in.mp4,1078718.0,16,55162.10000000149,1,38244.10000000149,56515.20000000298,1078718.0,17,12,inanimate,in,in
407,yngh1u01snkzl99,24,10_a_in_in.mp4,1120861.0,53,37597.39999999851,100,39208.10000000149,40633.80000000447,1120861.0,17,10,animate,in,in
408,yngh1u01snkzl99,25,13_a_out_out.mp4,1159599.0,81,22167.79999999702,100,36642.0,37475.69999999553,1159599.0,17,13,animate,out,out
409,yngh1u01snkzl99,26,20_p_out_in.mp4,1206018.0,50,26989.5,100,43853.5,44903.89999999851,1206018.0,17,20,inanimate,out,in
410,yngh1u01snkzl99,27,18_a_out_out.mp4,1231845.0,1,18579.69999999553,100,20550.0,24057.89999999851,1231845.0,17,18,animate,out,out
411,yngh1u01snkzl99,28,09_a_in_in.mp4,1249397.0,100,10420.30000000447,100,15630.60000000149,17032.70000000298,1249397.0,17,9,animate,in,in
412,yngh1u01snkzl99,29,12_a_in_in.mp4,1272975.0,1,17470.5,100,20995.20000000298,22308.70000000298,1272975.0,17,12,animate,in,in
413,yngh1u01snkzl99,30,11_p_in_in.mp4,1321303.0,70,44448.10000000149,1,42837.69999999553,46314.10000000149,1321303.0,17,11,inanimate,in,in
414,yngh1u01snkzl99,31,20_a_out_in.mp4,1356423.0,27,31670.70000000298,100,13277.30000000447,34104.80000000447,1356423.0,17,20,animate,out,in
415,yngh1u01snkzl99,32,06_p_in_out.mp4,1377285.0,100,12400.39999999851,1,15846.60000000149,19852.60000000149,1377285.0,17,6,inanimate,in,out
416,yngh1u01snkzl99,33,05_p_in_out.mp4,1389535.0,100,5807.5,1,10231.79999999702,11239.5,1389535.0,17,5,inanimate,in,out
417,yngh1u01snkzl99,34,07_p_in_in.mp4,1417895.0,1,12716.79999999702,1,25116.89999999851,26847.09999999404,1417895.0,17,7,inanimate,in,in
418,yngh1u01snkzl99,35,23_a_out_in.mp4,1456887.0,33,21639.60000000149,100,31152.0,38235.5,1456887.0,17,23,animate,out,in
419,yngh1u01snkzl99,36,14_a_out_out.mp4,1489425.0,84,22706.70000000298,100,29479.60000000149,30519.60000000149,1489425.0,17,14,animate,out,out
420,yngh1u01snkzl99,37,04_a_in_out.mp4,1518192.0,100,26293.5,100,22757.19999999553,27254.0,1518192.0,17,4,animate,in,out
421,yngh1u01snkzl99,38,01_a_in_out.mp4,1540865.0,82,11479.70000000298,100,20278.0,21160.0,1540865.0,17,1,animate,in,out
422,yngh1u01snkzl99,39,22_p_out_in.mp4,1575557.0,71,26792.60000000149,1,33034.5,33930.80000000447,1575557.0,17,22,inanimate,out,in
423,yngh1u01snkzl99,40,17_p_out_out.mp4,1591977.0,1,10611.69999999553,1,12725.29999999702,15161.29999999702,1591977.0,17,17,inanimate,out,out
424,yngh1u01snkzl99,41,19_p_out_in.mp4,1626643.0,27,21535.10000000149,1,30108.89999999851,33395.69999999553,1626643.0,17,19,inanimate,out,in
425,yngh1u01snkzl99,42,08_a_in_in.mp4,1640833.0,1,6062.10000000149,100,10795.30000000447,13922.0,1640833.0,17,8,animate,in,in
426,yngh1u01snkzl99,43,22_a_out_in.mp4,1681221.0,25,27255.69999999553,100,31804.79999999702,38377.5,1681221.0,17,22,animate,out,in
427,yngh1u01snkzl99,44,16_p_out_out.mp4,1711027.0,1,27591.90000000596,1,21727.60000000149,28538.30000000447,1711027.0,17,16,inanimate,out,out
428,yngh1u01snkzl99,45,04_p_in_out.mp4,1738319.0,83,17204.10000000149,1,22910.30000000447,26532.30000000447,1738319.0,17,4,inanimate,in,out
429,yngh1u01snkzl99,46,21_a_out_in.mp4,1772172.0,18,21062.19999999553,100,25484.0,32095.69999999553,1772172.0,17,21,animate,out,in
430,yngh1u01snkzl99,47,21_p_out_in.mp4,1792768.0,16,14833.40000000596,1,17277.20000000298,20087.90000000596,1792768.0,17,21,inanimate,out,in
431,yngh1u01snkzl99,48,01_p_in_out.mp4,1825342.0,33,29091.60000000149,1,30789.90000000596,32311.80000000447,1825342.0,17,1,inanimate,in,out
432,c7rp8r7tzas6l45,1,10_p_in_in.mp4,332669.0,100,30850.199999928474,100,94330.5,97300.59999990465,332669.0,18,10,inanimate,in,in
433,c7rp8r7tzas6l45,2,22_a_out_in.mp4,385864.0,100,28322.0,100,48691.79999995232,51423.29999995232,385864.0,18,22,animate,out,in
434,c7rp8r7tzas6l45,3,16_a_out_out.mp4,443756.0,1,34676.300000071526,100,50955.10000002384,56617.90000009537,443756.0,18,16,animate,out,out
435,c7rp8r7tzas6l45,4,24_p_out_in.mp4,470369.0,1,14904.899999976158,100,22698.200000047684,24594.60000002384,470369.0,18,24,inanimate,out,in
436,c7rp8r7tzas6l45,5,16_p_out_out.mp4,509188.0,1,23856.0,100,35604.59999990463,37547.79999995232,509188.0,18,16,inanimate,out,out
437,c7rp8r7tzas6l45,6,17_a_out_out.mp4,540088.0,1,24053.200000047684,100,29014.60000002384,30628.60000002384,540088.0,18,17,animate,out,out
438,c7rp8r7tzas6l45,7,06_a_in_out.mp4,563212.0,100,14890.399999976158,100,17929.700000047684,21854.10000002384,563212.0,18,6,animate,in,out
439,c7rp8r7tzas6l45,8,18_p_out_out.mp4,595007.0,1,20734.30000007153,100,23643.39999997616,30018.700000047684,595007.0,18,18,inanimate,out,out
440,c7rp8r7tzas6l45,9,23_p_out_in.mp4,638322.0,100,31683.5,100,37002.59999990463,42303.79999995232,638322.0,18,23,inanimate,out,in
441,c7rp8r7tzas6l45,10,15_a_out_out.mp4,656290.0,1,12342.899999976158,100,15392.099999904633,16695.699999928474,656290.0,18,15,animate,out,out
442,c7rp8r7tzas6l45,11,12_p_in_in.mp4,689800.0,1,17040.799999952316,1,26451.0,32237.79999995232,689800.0,18,12,inanimate,in,in
443,c7rp8r7tzas6l45,12,04_p_in_out.mp4,708991.0,1,9459.0,100,13721.600000023842,18173.200000047684,708991.0,18,4,inanimate,in,out
444,c7rp8r7tzas6l45,13,02_a_in_out.mp4,724139.0,100,9633.899999976158,100,11834.299999952316,13875.799999952316,724139.0,18,2,animate,in,out
445,c7rp8r7tzas6l45,14,17_p_out_out.mp4,749961.0,100,16050.0,100,21985.10000002384,24314.400000095367,749961.0,18,17,inanimate,out,out
446,c7rp8r7tzas6l45,15,12_a_in_in.mp4,783168.0,1,27911.10000002384,100,30539.80000007153,32441.900000095367,783168.0,18,12,animate,in,in
447,c7rp8r7tzas6l45,16,11_p_in_in.mp4,815049.0,100,19593.199999928474,100,28792.39999997616,30863.599999904636,815049.0,18,11,inanimate,in,in
448,c7rp8r7tzas6l45,17,06_p_in_out.mp4,846977.0,100,12163.5,100,20735.700000047684,30910.29999995232,846977.0,18,6,inanimate,in,out
449,c7rp8r7tzas6l45,18,23_a_out_in.mp4,890299.0,1,36326.300000071526,100,39262.70000004768,42050.300000071526,890299.0,18,23,animate,out,in
450,c7rp8r7tzas6l45,19,11_a_in_in.mp4,916512.0,100,17975.5,100,20933.10000002384,25452.199999928474,916512.0,18,11,animate,in,in
451,c7rp8r7tzas6l45,20,22_p_out_in.mp4,952044.0,1,22839.10000002384,100,28235.200000047684,34764.89999997616,952044.0,18,22,inanimate,out,in
452,c7rp8r7tzas6l45,21,09_p_in_in.mp4,973822.0,100,10901.0,1,15957.599999904633,21500.79999995232,973822.0,18,9,inanimate,in,in
453,c7rp8r7tzas6l45,22,05_p_in_out.mp4,1000632.0,100,21284.5,100,23613.29999995232,25036.39999997616,1000632.0,18,5,inanimate,in,out
454,c7rp8r7tzas6l45,23,03_p_in_out.mp4,1015589.0,100,10124.399999976158,100,12572.700000047684,14184.600000023842,1015589.0,18,3,inanimate,in,out
455,c7rp8r7tzas6l45,24,08_a_in_in.mp4,1030953.0,1,9846.0,100,12651.900000095367,14851.5,1030953.0,18,8,animate,in,in
456,c7rp8r7tzas6l45,25,01_p_in_out.mp4,1054523.0,100,16892.300000071526,100,20086.200000047684,21807.400000095367,1054523.0,18,1,inanimate,in,out
457,c7rp8r7tzas6l45,26,20_p_out_in.mp4,1086863.0,1,26191.89999997616,100,29614.80000007153,31315.5,1086863.0,18,20,inanimate,out,in
458,c7rp8r7tzas6l45,27,05_a_in_out.mp4,1118759.0,100,16376.199999928474,100,28434.29999995232,29875.89999997616,1118759.0,18,5,animate,in,out
459,c7rp8r7tzas6l45,28,19_p_out_in.mp4,1159749.0,100,32256.5,100,37985.5,39716.0,1159749.0,18,19,inanimate,out,in
460,c7rp8r7tzas6l45,29,07_a_in_in.mp4,1196512.0,1,29721.39999997616,100,33222.699999928474,35750.39999997616,1196512.0,18,7,animate,in,in
461,c7rp8r7tzas6l45,30,21_p_out_in.mp4,1222693.0,100,21129.699999928474,100,22621.5,24411.599999904636,1222693.0,18,21,inanimate,out,in
462,c7rp8r7tzas6l45,31,07_p_in_in.mp4,1251041.0,1,22104.30000007153,1,23874.80000007153,26570.10000002384,1251041.0,18,7,inanimate,in,in
463,c7rp8r7tzas6l45,32,13_p_out_out.mp4,1283940.0,100,18235.30000007153,100,30935.200000047684,32387.0,1283940.0,18,13,inanimate,out,out
464,c7rp8r7tzas6l45,33,24_a_out_in.mp4,1306960.0,1,15900.899999976158,100,19858.199999928474,22493.39999997616,1306960.0,18,24,animate,out,in
465,c7rp8r7tzas6l45,34,19_a_out_in.mp4,1320276.0,100,7848.599999904633,100,9807.299999952316,11796.199999928474,1320276.0,18,19,animate,out,in
466,c7rp8r7tzas6l45,35,09_a_in_in.mp4,1384339.0,100,56368.800000071526,100,61380.89999997616,62534.5,1384339.0,18,9,animate,in,in
467,c7rp8r7tzas6l45,36,14_p_out_out.mp4,1408712.0,1,15730.800000071526,100,18425.5,23854.80000007153,1408712.0,18,14,inanimate,out,out
468,c7rp8r7tzas6l45,37,13_a_out_out.mp4,1430440.0,100,16059.199999928474,100,18236.89999997616,20454.0,1430440.0,18,13,animate,out,out
469,c7rp8r7tzas6l45,38,20_a_out_in.mp4,1463462.0,1,21909.199999928474,1,25119.89999997616,31750.0,1463462.0,18,20,animate,out,in
470,c7rp8r7tzas6l45,39,15_p_out_out.mp4,1479654.0,1,9997.699999928474,100,13536.0,15425.0,1479654.0,18,15,inanimate,out,out
471,c7rp8r7tzas6l45,40,21_a_out_in.mp4,1498319.0,1,13971.700000047684,100,16197.899999976158,18136.10000002384,1498319.0,18,21,animate,out,in
472,c7rp8r7tzas6l45,41,02_p_in_out.mp4,1513832.0,100,10208.0,100,12484.0,13984.400000095367,1513832.0,18,2,inanimate,in,out
473,c7rp8r7tzas6l45,42,18_a_out_out.mp4,1533629.0,1,15077.900000095367,100,17701.0,19510.200000047684,1533629.0,18,18,animate,out,out
474,c7rp8r7tzas6l45,43,01_a_in_out.mp4,1610875.0,100,69428.60000002384,100,72966.60000002384,75222.90000009537,1610875.0,18,1,animate,in,out
475,c7rp8r7tzas6l45,44,10_a_in_in.mp4,1634298.0,1,18554.60000002384,100,21069.10000002384,22907.199999928474,1634298.0,18,10,animate,in,in
476,c7rp8r7tzas6l45,45,04_a_in_out.mp4,1657643.0,100,15184.100000023842,100,20549.900000095367,22567.400000095367,1657643.0,18,4,animate,in,out
477,c7rp8r7tzas6l45,46,08_p_in_in.mp4,1676110.0,1,11992.5,100,14854.200000047684,16702.100000023842,1676110.0,18,8,inanimate,in,in
478,c7rp8r7tzas6l45,47,03_a_in_out.mp4,1756395.0,100,75339.80000007153,100,76751.30000007153,78768.70000004768,1756395.0,18,3,animate,in,out
479,c7rp8r7tzas6l45,48,14_a_out_out.mp4,1774382.0,100,14843.200000047684,100,16204.5,17704.900000095367,1774382.0,18,14,animate,out,out
480,ujzvxelnjdy3mep,1,09_a_in_in.mp4,132937.0,29,23501.09999999404,100,28812.29999999702,30061.19999998808,132937.0,19,9,animate,in,in
481,ujzvxelnjdy3mep,2,17_p_out_out.mp4,151723.0,1,9347.29999999702,76,16270.39999999106,17531.5,151723.0,19,17,inanimate,out,out
482,ujzvxelnjdy3mep,3,06_a_in_out.mp4,169920.0,100,13888.79999999702,89,16016.29999999702,16937.70000000298,169920.0,19,6,animate,in,out
483,ujzvxelnjdy3mep,4,05_p_in_out.mp4,187788.0,98,12313.5,59,15559.60000000894,16363.5,187788.0,19,5,inanimate,in,out
484,ujzvxelnjdy3mep,5,23_p_out_in.mp4,209121.0,67,16476.70000000298,67,20052.0,20828.39999999106,209121.0,19,23,inanimate,out,in
485,ujzvxelnjdy3mep,6,07_a_in_in.mp4,223522.0,1,8063.699999988079,100,11640.29999999702,12388.59999999404,223522.0,19,7,animate,in,in
486,ujzvxelnjdy3mep,7,07_p_in_in.mp4,242817.0,1,12144.59999999404,39,17681.89999999106,18789.79999999702,242817.0,19,7,inanimate,in,in
487,ujzvxelnjdy3mep,8,17_a_out_out.mp4,260264.0,1,13092.79999999702,100,14549.29999999702,15443.39999999106,260264.0,19,17,animate,out,out
488,ujzvxelnjdy3mep,9,03_a_in_out.mp4,271249.0,100,5662.20000000298,100,7001.100000008941,9481.29999999702,271249.0,19,3,animate,in,out
489,ujzvxelnjdy3mep,10,13_a_out_out.mp4,284741.0,100,10742.89999999106,100,12385.79999999702,13236.79999999702,284741.0,19,13,animate,out,out
490,ujzvxelnjdy3mep,11,12_p_in_in.mp4,302012.0,1,12851.79999999702,26,15646.0,16518.09999999404,302012.0,19,12,inanimate,in,in
491,ujzvxelnjdy3mep,12,22_a_out_in.mp4,313393.0,27,8636.29999999702,100,10129.0,10877.09999999404,313393.0,19,22,animate,out,in
492,ujzvxelnjdy3mep,13,20_a_out_in.mp4,327179.0,45,10869.29999999702,100,12114.29999999702,13032.20000000298,327179.0,19,20,animate,out,in
493,ujzvxelnjdy3mep,14,11_a_in_in.mp4,341969.0,19,10410.70000000298,100,11994.60000000894,12786.40000000596,341969.0,19,11,animate,in,in
494,ujzvxelnjdy3mep,15,10_p_in_in.mp4,358387.0,10,13032.90000000596,21,14852.10000000894,15664.5,358387.0,19,10,inanimate,in,in
495,ujzvxelnjdy3mep,16,14_a_out_out.mp4,370683.0,100,5209.29999999702,100,10003.0,10787.90000000596,370683.0,19,14,animate,out,out
496,ujzvxelnjdy3mep,17,22_p_out_in.mp4,397748.0,34,19933.19999998808,9,25116.0,25810.89999999106,397748.0,19,22,inanimate,out,in
497,ujzvxelnjdy3mep,18,19_p_out_in.mp4,431424.0,73,25164.70000000298,8,31661.20000000298,32409.80000001192,431424.0,19,19,inanimate,out,in
498,ujzvxelnjdy3mep,19,06_p_in_out.mp4,443898.0,100,8523.89999999106,11,10095.09999999404,10716.69999998808,443898.0,19,6,inanimate,in,out
499,ujzvxelnjdy3mep,20,19_a_out_in.mp4,458420.0,81,10601.30000001192,100,11783.5,12761.30000001192,458420.0,19,19,animate,out,in
500,ujzvxelnjdy3mep,21,24_p_out_in.mp4,474044.0,36,10265.10000000894,5,14668.40000000596,15357.20000000298,474044.0,19,24,inanimate,out,in
501,ujzvxelnjdy3mep,22,18_p_out_out.mp4,491068.0,1,7465.40000000596,1,13816.30000001192,15019.40000000596,491068.0,19,18,inanimate,out,out
502,ujzvxelnjdy3mep,23,15_p_out_out.mp4,511202.0,65,16240.79999999702,1,18105.90000000596,19131.0,511202.0,19,15,inanimate,out,out
503,ujzvxelnjdy3mep,24,11_p_in_in.mp4,522152.0,1,5471.79999999702,1,7104.70000000298,9693.79999999702,522152.0,19,11,inanimate,in,in
504,ujzvxelnjdy3mep,25,08_a_in_in.mp4,534612.0,5,7488.599999994039,80,10583.69999998808,11448.39999999106,534612.0,19,8,animate,in,in
505,ujzvxelnjdy3mep,26,18_a_out_out.mp4,549423.0,1,11240.0,100,12800.5,13799.5,549423.0,19,18,animate,out,out
506,ujzvxelnjdy3mep,27,04_p_in_out.mp4,566800.0,1,11683.59999999404,1,15520.79999999702,16123.70000000298,566800.0,19,4,inanimate,in,out
507,ujzvxelnjdy3mep,28,10_a_in_in.mp4,583632.0,29,11486.30000001192,86,14315.60000000894,15077.5,583632.0,19,10,animate,in,in
508,ujzvxelnjdy3mep,29,05_a_in_out.mp4,595340.0,100,7818.20000000298,100,10063.0,10703.30000001192,595340.0,19,5,animate,in,out
509,ujzvxelnjdy3mep,30,13_p_out_out.mp4,613106.0,94,11961.90000000596,55,16199.70000000298,16763.0,613106.0,19,13,inanimate,out,out
510,ujzvxelnjdy3mep,31,20_p_out_in.mp4,627100.0,74,6676.29999999702,29,12149.10000000894,12981.20000000298,627100.0,19,20,inanimate,out,in
511,ujzvxelnjdy3mep,32,16_a_out_out.mp4,651855.0,41,21255.90000000596,100,23520.0,24492.09999999404,651855.0,19,16,animate,out,out
512,ujzvxelnjdy3mep,33,12_a_in_in.mp4,664053.0,1,8609.5,100,10436.70000000298,11943.60000000894,664053.0,19,12,animate,in,in
513,ujzvxelnjdy3mep,34,02_a_in_out.mp4,701951.0,23,34488.20000000298,100,35947.40000000596,36644.20000000298,701951.0,19,2,animate,in,out
514,ujzvxelnjdy3mep,35,02_p_in_out.mp4,722610.0,58,15959.09999999404,7,18552.79999999702,19392.09999999404,722610.0,19,2,inanimate,in,out
515,ujzvxelnjdy3mep,36,14_p_out_out.mp4,735866.0,100,10181.10000000894,1,11936.79999999702,12739.29999999702,735866.0,19,14,inanimate,out,out
516,ujzvxelnjdy3mep,37,01_a_in_out.mp4,750680.0,100,10398.90000000596,100,12092.90000000596,12809.40000000596,750680.0,19,1,animate,in,out
517,ujzvxelnjdy3mep,38,09_p_in_in.mp4,765374.0,84,10461.40000000596,1,13385.0,14189.10000000894,765374.0,19,9,inanimate,in,in
518,ujzvxelnjdy3mep,39,01_p_in_out.mp4,785197.0,64,15468.70000000298,28,18659.59999999404,19319.39999999106,785197.0,19,1,inanimate,in,out
519,ujzvxelnjdy3mep,40,03_p_in_out.mp4,815842.0,71,22728.80000001192,71,29103.80000001192,30139.80000001192,815842.0,19,3,inanimate,in,out
520,ujzvxelnjdy3mep,41,21_p_out_in.mp4,832981.0,100,14432.29999999702,1,15945.09999999404,16874.40000000596,832981.0,19,21,inanimate,out,in
521,ujzvxelnjdy3mep,42,15_a_out_out.mp4,846272.0,100,9968.20000000298,100,11708.29999999702,12524.79999999702,846272.0,19,15,animate,out,out
522,ujzvxelnjdy3mep,43,08_p_in_in.mp4,858466.0,1,5219.9000000059605,1,9887.20000000298,11424.5,858466.0,19,8,inanimate,in,in
523,ujzvxelnjdy3mep,44,21_a_out_in.mp4,872449.0,83,9546.09999999404,77,11458.20000000298,12222.20000000298,872449.0,19,21,animate,out,in
524,ujzvxelnjdy3mep,45,23_a_out_in.mp4,881303.0,100,3660.300000011921,100,5258.20000000298,7100.9000000059605,881303.0,19,23,animate,out,in
525,ujzvxelnjdy3mep,46,04_a_in_out.mp4,889938.0,85,5429.20000000298,100,7082.20000000298,7867.300000011921,889938.0,19,4,animate,in,out
526,ujzvxelnjdy3mep,47,24_a_out_in.mp4,909718.0,30,15649.40000000596,100,18217.40000000596,19021.29999999702,909718.0,19,24,animate,out,in
527,ujzvxelnjdy3mep,48,16_p_out_out.mp4,926565.0,72,10266.60000000894,15,13728.40000000596,14843.5,926565.0,19,16,inanimate,out,out
528,eur3domry9lny4r,1,04_a_in_out.mp4,62795.0,94,9513.0,100,15237.0,16558.0,62795.0,20,4,animate,in,out
529,eur3domry9lny4r,2,07_a_in_in.mp4,74825.0,1,6704.0,100,10582.0,11274.0,74825.0,20,7,animate,in,in
530,eur3domry9lny4r,3,01_p_in_out.mp4,92832.0,90,6499.0,65,15355.0,15989.0,92832.0,20,1,inanimate,in,out
531,eur3domry9lny4r,4,08_a_in_in.mp4,103072.0,1,5648.0,100,9271.0,9725.0,103072.0,20,8,animate,in,in
532,eur3domry9lny4r,5,10_a_in_in.mp4,113141.0,15,7849.0,81,9089.0,9563.0,113141.0,20,10,animate,in,in
533,eur3domry9lny4r,6,16_p_out_out.mp4,129381.0,11,10224.0,15,14811.0,15488.0,129381.0,20,16,inanimate,out,out
534,eur3domry9lny4r,7,05_p_in_out.mp4,141392.0,94,9295.0,30,10361.0,10756.0,141392.0,20,5,inanimate,in,out
535,eur3domry9lny4r,8,21_a_out_in.mp4,148025.0,100,4605.0,93,5807.0,6374.0,148025.0,20,21,animate,out,in
536,eur3domry9lny4r,9,23_a_out_in.mp4,158805.0,68,8798.0,85,9879.0,10264.0,158805.0,20,23,animate,out,in
537,eur3domry9lny4r,10,18_p_out_out.mp4,175538.0,1,9502.0,1,15420.0,15977.0,175538.0,20,18,inanimate,out,out
538,eur3domry9lny4r,11,13_a_out_out.mp4,183498.0,95,4489.0,100,5501.0,5944.0,183498.0,20,13,animate,out,out
539,eur3domry9lny4r,12,22_a_out_in.mp4,199761.0,72,14993.0,100,13159.0,15506.0,199761.0,20,22,animate,out,in
540,eur3domry9lny4r,13,21_p_out_in.mp4,214355.0,86,9039.0,5,11238.0,13583.0,214355.0,20,21,inanimate,out,in
541,eur3domry9lny4r,14,14_p_out_out.mp4,221785.0,97,4365.0,6,5550.0,5919.0,221785.0,20,14,inanimate,out,out
542,eur3domry9lny4r,15,17_a_out_out.mp4,227342.0,1,3119.0,100,3833.0,4799.0,227342.0,20,17,animate,out,out
543,eur3domry9lny4r,16,07_p_in_in.mp4,235754.0,1,5534.0,1,7018.0,7657.0,235754.0,20,7,inanimate,in,in
544,eur3domry9lny4r,17,05_a_in_out.mp4,241890.0,96,3579.0,97,4430.0,4878.0,241890.0,20,5,animate,in,out
545,eur3domry9lny4r,18,12_a_in_in.mp4,250959.0,7,6448.0,87,7708.0,8068.0,250959.0,20,12,animate,in,in
546,eur3domry9lny4r,19,24_p_out_in.mp4,263832.0,67,10202.0,20,11428.0,11867.0,263832.0,20,24,inanimate,out,in
547,eur3domry9lny4r,20,17_p_out_out.mp4,272635.0,1,4921.0,1,5901.0,6799.0,272635.0,20,17,inanimate,out,out
548,eur3domry9lny4r,21,06_a_in_out.mp4,291519.0,100,15228.0,100,16690.0,17122.0,291519.0,20,6,animate,in,out
549,eur3domry9lny4r,22,15_a_out_out.mp4,304154.0,100,9095.0,95,9917.0,10626.0,304154.0,20,15,animate,out,out
550,eur3domry9lny4r,23,22_p_out_in.mp4,315892.0,89,9507.0,18,10337.0,10979.0,315892.0,20,22,inanimate,out,in
551,eur3domry9lny4r,24,14_a_out_out.mp4,322632.0,100,4013.0,97,5001.0,5476.0,322632.0,20,14,animate,out,out
552,eur3domry9lny4r,25,10_p_in_in.mp4,330933.0,14,4910.0,1,6656.0,7537.0,330933.0,20,10,inanimate,in,in
553,eur3domry9lny4r,26,24_a_out_in.mp4,338701.0,27,4566.0,88,6528.0,7514.0,338701.0,20,24,animate,out,in
554,eur3domry9lny4r,27,11_a_in_in.mp4,346004.0,14,3680.0,88,4706.0,5296.0,346004.0,20,11,animate,in,in
555,eur3domry9lny4r,28,03_p_in_out.mp4,354519.0,96,4590.0,7,6240.0,6759.0,354519.0,20,3,inanimate,in,out
556,eur3domry9lny4r,29,09_a_in_in.mp4,362118.0,62,4790.0,87,5864.0,6585.0,362118.0,20,9,animate,in,in
557,eur3domry9lny4r,30,01_a_in_out.mp4,376965.0,57,10941.0,86,12231.0,12840.0,376965.0,20,1,animate,in,out
558,eur3domry9lny4r,31,02_a_in_out.mp4,387830.0,29,9429.0,88,10176.0,10607.0,387830.0,20,2,animate,in,out
559,eur3domry9lny4r,32,02_p_in_out.mp4,404250.0,84,8915.0,25,11771.0,14664.0,404250.0,20,2,inanimate,in,out
560,eur3domry9lny4r,33,08_p_in_in.mp4,410402.0,1,3426.0,5,4430.0,4888.0,410402.0,20,8,inanimate,in,in
561,eur3domry9lny4r,34,19_a_out_in.mp4,428500.0,93,15534.0,100,16352.0,17333.0,428500.0,20,19,animate,out,in
562,eur3domry9lny4r,35,04_p_in_out.mp4,445011.0,100,9943.0,18,15693.0,16251.0,445011.0,20,4,inanimate,in,out
563,eur3domry9lny4r,36,03_a_in_out.mp4,458021.0,100,10202.0,88,10957.0,11501.0,458021.0,20,3,animate,in,out
564,eur3domry9lny4r,37,19_p_out_in.mp4,471642.0,100,10215.0,6,11131.0,11604.0,471642.0,20,19,inanimate,out,in
565,eur3domry9lny4r,38,20_p_out_in.mp4,478357.0,91,4366.0,3,5329.0,5961.0,478357.0,20,20,inanimate,out,in
566,eur3domry9lny4r,39,16_a_out_out.mp4,488765.0,7,6274.0,93,8717.0,9151.0,488765.0,20,16,animate,out,out
567,eur3domry9lny4r,40,11_p_in_in.mp4,498722.0,21,4280.0,1,8408.0,9450.0,498722.0,20,11,inanimate,in,in
568,eur3domry9lny4r,41,18_a_out_out.mp4,511462.0,4,10811.0,100,11540.0,11973.0,511462.0,20,18,animate,out,out
569,eur3domry9lny4r,42,23_p_out_in.mp4,519550.0,84,4991.0,1,5849.0,6332.0,519550.0,20,23,inanimate,out,in
570,eur3domry9lny4r,43,09_p_in_in.mp4,526800.0,20,4897.0,7,6006.0,6483.0,526800.0,20,9,inanimate,in,in
571,eur3domry9lny4r,44,20_a_out_in.mp4,533458.0,93,3822.0,87,4773.0,5892.0,533458.0,20,20,animate,out,in
572,eur3domry9lny4r,45,13_p_out_out.mp4,546372.0,25,9986.0,14,11201.0,11647.0,546372.0,20,13,inanimate,out,out
573,eur3domry9lny4r,46,15_p_out_out.mp4,553186.0,17,3597.0,17,5245.0,5559.0,553186.0,20,15,inanimate,out,out
574,eur3domry9lny4r,47,06_p_in_out.mp4,564399.0,100,9337.0,14,10104.0,10702.0,564399.0,20,6,inanimate,in,out
575,eur3domry9lny4r,48,12_p_in_in.mp4,576298.0,11,7083.0,2,8596.0,10140.0,576298.0,20,12,inanimate,in,in
576,rsbm4tmgbzlev7l,1,08_p_in_in.mp4,111921.0,1,21412.79999995232,100,31881.0,33212.59999990463,111921.0,23,8,inanimate,in,in
577,rsbm4tmgbzlev7l,2,17_a_out_out.mp4,135990.0,1,16929.299999952316,100,20454.89999997616,22057.29999995232,135990.0,23,17,animate,out,out
578,rsbm4tmgbzlev7l,3,05_a_in_out.mp4,151588.0,100,10293.300000071526,100,13274.800000071526,14841.200000047684,151588.0,23,5,animate,in,out
579,rsbm4tmgbzlev7l,4,19_p_out_in.mp4,167438.0,100,11863.800000071526,100,14159.899999976158,15342.300000071526,167438.0,23,19,inanimate,out,in
580,rsbm4tmgbzlev7l,5,04_p_in_out.mp4,199906.0,100,27146.89999997616,100,29222.10000002384,30457.0,199906.0,23,4,inanimate,in,out
581,rsbm4tmgbzlev7l,6,01_a_in_out.mp4,216464.0,100,10757.299999952316,100,13640.200000047684,14548.799999952316,216464.0,23,1,animate,in,out
582,rsbm4tmgbzlev7l,7,11_a_in_in.mp4,228715.0,100,7843.200000047684,100,9676.600000023842,10992.700000047684,228715.0,23,11,animate,in,in
583,rsbm4tmgbzlev7l,8,19_a_out_in.mp4,240256.0,100,6448.700000047684,100,9621.899999976158,10779.0,240256.0,23,19,animate,out,in
584,rsbm4tmgbzlev7l,9,12_p_in_in.mp4,262779.0,1,14877.300000071526,1,19278.80000007153,20515.700000047684,262779.0,23,12,inanimate,in,in
585,rsbm4tmgbzlev7l,10,03_p_in_out.mp4,272713.0,100,5611.100000023842,1,7500.700000047684,8924.600000023842,272713.0,23,3,inanimate,in,out
586,rsbm4tmgbzlev7l,11,20_p_out_in.mp4,287872.0,100,11252.699999928474,1,13270.100000023842,14903.100000023842,287872.0,23,20,inanimate,out,in
587,rsbm4tmgbzlev7l,12,18_a_out_out.mp4,306160.0,1,13806.599999904633,100,16021.0,17528.0,306160.0,23,18,animate,out,out
588,rsbm4tmgbzlev7l,13,16_a_out_out.mp4,323339.0,1,12353.100000023842,1,15375.399999976158,16669.0,323339.0,23,16,animate,out,out
589,rsbm4tmgbzlev7l,14,22_a_out_in.mp4,338224.0,100,10640.0,100,13039.200000047684,14374.400000095367,338224.0,23,22,animate,out,in
590,rsbm4tmgbzlev7l,15,23_a_out_in.mp4,355142.0,100,12336.899999976158,100,14086.0,15655.299999952316,355142.0,23,23,animate,out,in
591,rsbm4tmgbzlev7l,16,24_a_out_in.mp4,375414.0,100,13704.299999952316,100,17481.699999928474,18762.79999995232,375414.0,23,24,animate,out,in
592,rsbm4tmgbzlev7l,17,15_a_out_out.mp4,392717.0,1,10603.400000095367,100,14215.200000047684,15542.0,392717.0,23,15,animate,out,out
593,rsbm4tmgbzlev7l,18,06_a_in_out.mp4,402808.0,100,5683.100000023842,100,8653.800000071526,9833.700000047684,402808.0,23,6,animate,in,out
594,rsbm4tmgbzlev7l,19,23_p_out_in.mp4,414610.0,100,6434.099999904633,1,8458.799999952316,10044.0,414610.0,23,23,inanimate,out,in
595,rsbm4tmgbzlev7l,20,10_p_in_in.mp4,448032.0,50,29080.0,1,19022.79999995232,31912.79999995232,448032.0,23,10,inanimate,in,in
596,rsbm4tmgbzlev7l,21,07_a_in_in.mp4,464684.0,1,12834.300000071526,1,14988.5,16394.700000047684,464684.0,23,7,animate,in,in
597,rsbm4tmgbzlev7l,22,24_p_out_in.mp4,489592.0,1,13165.600000023842,1,22874.5,23899.0,489592.0,23,24,inanimate,out,in
598,rsbm4tmgbzlev7l,23,14_p_out_out.mp4,512598.0,1,17787.5,1,19779.199999928474,20993.599999904636,512598.0,23,14,inanimate,out,out
599,rsbm4tmgbzlev7l,24,03_a_in_out.mp4,530012.0,100,8875.699999928474,100,11441.699999928474,17156.0,530012.0,23,3,animate,in,out
600,rsbm4tmgbzlev7l,25,18_p_out_out.mp4,555747.0,1,10737.600000023842,1,21819.29999995232,23973.39999997616,555747.0,23,18,inanimate,out,out
601,rsbm4tmgbzlev7l,26,02_p_in_out.mp4,581245.0,100,17174.699999928474,1,22382.5,23991.29999995232,581245.0,23,2,inanimate,in,out
602,rsbm4tmgbzlev7l,27,08_a_in_in.mp4,596807.0,1,11556.100000023842,100,13860.300000071526,15054.5,596807.0,23,8,animate,in,in
603,rsbm4tmgbzlev7l,28,10_a_in_in.mp4,613149.0,1,12334.0,100,14576.199999928474,15583.899999976158,613149.0,23,10,animate,in,in
604,rsbm4tmgbzlev7l,29,11_p_in_in.mp4,629091.0,1,11784.699999928474,1,13829.199999928474,15684.799999952316,629091.0,23,11,inanimate,in,in
605,rsbm4tmgbzlev7l,30,04_a_in_out.mp4,650448.0,100,17559.400000095367,100,19479.60000002384,20597.0,650448.0,23,4,animate,in,out
606,rsbm4tmgbzlev7l,31,06_p_in_out.mp4,661558.0,100,6516.5,1,8686.0,10350.0,661558.0,23,6,inanimate,in,out
607,rsbm4tmgbzlev7l,32,07_p_in_in.mp4,676847.0,1,8808.900000095367,1,12356.0,14028.100000023842,676847.0,23,7,inanimate,in,in
608,rsbm4tmgbzlev7l,33,21_a_out_in.mp4,691248.0,1,7890.100000023842,100,11371.299999952316,13142.600000023842,691248.0,23,21,animate,out,in
609,rsbm4tmgbzlev7l,34,13_a_out_out.mp4,713399.0,100,17786.5,100,20406.0,21643.0,713399.0,23,13,animate,out,out
610,rsbm4tmgbzlev7l,35,21_p_out_in.mp4,744292.0,1,22792.29999995232,1,28011.39999997616,29136.39999997616,744292.0,23,21,inanimate,out,in
611,rsbm4tmgbzlev7l,36,05_p_in_out.mp4,757477.0,100,6428.200000047684,1,9882.700000047684,12177.600000023842,757477.0,23,5,inanimate,in,out
612,rsbm4tmgbzlev7l,37,01_p_in_out.mp4,781316.0,83,18878.700000047684,1,21193.80000007153,22332.60000002384,781316.0,23,1,inanimate,in,out
613,rsbm4tmgbzlev7l,38,13_p_out_out.mp4,813719.0,26,27266.0,1,29672.89999997616,30890.200000047684,813719.0,23,13,inanimate,out,out
614,rsbm4tmgbzlev7l,39,09_a_in_in.mp4,828872.0,100,9453.200000047684,100,12255.0,13637.200000047684,828872.0,23,9,animate,in,in
615,rsbm4tmgbzlev7l,40,16_p_out_out.mp4,843709.0,1,11085.799999952316,1,12832.899999976158,13819.399999976158,843709.0,23,16,inanimate,out,out
616,rsbm4tmgbzlev7l,41,12_a_in_in.mp4,858201.0,1,7856.800000071526,100,10987.200000047684,12479.0,858201.0,23,12,animate,in,in
617,rsbm4tmgbzlev7l,42,15_p_out_out.mp4,879107.0,1,16381.200000047684,1,18035.10000002384,19394.5,879107.0,23,15,inanimate,out,out
618,rsbm4tmgbzlev7l,43,22_p_out_in.mp4,893833.0,100,11182.699999928474,1,13067.199999928474,14468.299999952316,893833.0,23,22,inanimate,out,in
619,rsbm4tmgbzlev7l,44,09_p_in_in.mp4,907432.0,100,6239.100000023842,1,11402.299999952316,12839.5,907432.0,23,9,inanimate,in,in
620,rsbm4tmgbzlev7l,45,02_a_in_out.mp4,930171.0,1,17203.899999976158,100,20184.60000002384,21477.39999997616,930171.0,23,2,animate,in,out
621,rsbm4tmgbzlev7l,46,20_a_out_in.mp4,952852.0,100,17050.799999952316,100,19696.89999997616,20919.89999997616,952852.0,23,20,animate,out,in
622,rsbm4tmgbzlev7l,47,14_a_out_out.mp4,968613.0,1,11027.399999976158,100,13584.100000023842,14750.399999976158,968613.0,23,14,animate,out,out
623,rsbm4tmgbzlev7l,48,17_p_out_out.mp4,980280.0,1,5026.799999952316,1,9640.5,11157.899999976158,980280.0,23,17,inanimate,out,out
624,307xl96xevy258j,1,15_a_out_out.mp4,362557.0,88,21862.0,64,67600.70000004768,69850.70000004768,362557.0,24,15,animate,out,out
625,307xl96xevy258j,2,19_a_out_in.mp4,399399.0,28,28020.10000002384,85,31713.10000002384,35798.39999997616,399399.0,24,19,animate,out,in
626,307xl96xevy258j,3,14_p_out_out.mp4,424392.0,70,13900.199999928474,24,22635.699999928474,24677.199999928474,424392.0,24,14,inanimate,out,out
627,307xl96xevy258j,4,24_a_out_in.mp4,445759.0,93,12096.199999928474,92,17427.599999904633,19313.5,445759.0,24,24,animate,out,in
628,307xl96xevy258j,5,01_p_in_out.mp4,511671.0,71,19489.79999995232,39,50395.60000002384,63874.70000004768,511671.0,24,1,inanimate,in,out
629,307xl96xevy258j,6,19_p_out_in.mp4,535600.0,65,14651.5,40,18631.89999997616,23133.0,535600.0,24,19,inanimate,out,in
630,307xl96xevy258j,7,05_a_in_out.mp4,566747.0,87,19370.79999995232,96,26236.39999997616,29852.699999928474,566747.0,24,5,animate,in,out
631,307xl96xevy258j,8,21_p_out_in.mp4,588332.0,58,12093.599999904633,37,15833.599999904633,20791.699999928474,588332.0,24,21,inanimate,out,in
632,307xl96xevy258j,9,07_p_in_in.mp4,621994.0,4,27659.700000047684,6,29852.60000002384,31617.80000007153,621994.0,24,7,inanimate,in,in
633,307xl96xevy258j,10,08_a_in_in.mp4,651474.0,4,19780.699999928474,20,26489.89999997616,27707.099999904636,651474.0,24,8,animate,in,in
634,307xl96xevy258j,11,07_a_in_in.mp4,687113.0,21,18961.89999997616,24,32585.5,34367.10000002384,687113.0,24,7,animate,in,in
635,307xl96xevy258j,12,09_a_in_in.mp4,710031.0,99,16128.600000023842,93,20473.30000007153,22123.900000095367,710031.0,24,9,animate,in,in
636,307xl96xevy258j,13,16_a_out_out.mp4,755936.0,62,37511.39999997616,36,41178.60000002384,44881.39999997616,755936.0,24,16,animate,out,out
637,307xl96xevy258j,14,22_p_out_in.mp4,788092.0,57,23725.200000047684,18,29720.29999995232,31363.79999995232,788092.0,24,22,inanimate,out,in
638,307xl96xevy258j,15,02_a_in_out.mp4,822385.0,73,31309.099999904636,78,27361.5,32759.39999997616,822385.0,24,2,animate,in,out
639,307xl96xevy258j,16,24_p_out_in.mp4,863074.0,62,28267.39999997616,14,35298.699999928474,38662.5,863074.0,24,24,inanimate,out,in
640,307xl96xevy258j,17,20_p_out_in.mp4,900059.0,72,20168.30000007153,15,27143.30000007153,36427.300000071526,900059.0,24,20,inanimate,out,in
641,307xl96xevy258j,18,04_p_in_out.mp4,927334.0,94,19562.0,7,23730.10000002384,25231.89999997616,927334.0,24,4,inanimate,in,out
642,307xl96xevy258j,19,08_p_in_in.mp4,960022.0,4,17929.800000071526,14,23068.0,30653.30000007153,960022.0,24,8,inanimate,in,in
643,307xl96xevy258j,20,10_p_in_in.mp4,1003841.0,80,38450.89999997616,22,40931.39999997616,42279.70000004768,1003841.0,24,10,inanimate,in,in
644,307xl96xevy258j,21,18_a_out_out.mp4,1029527.0,62,15117.200000047684,100,20192.0,24632.10000002384,1029527.0,24,18,animate,out,out
645,307xl96xevy258j,22,03_a_in_out.mp4,1059912.0,97,25151.200000047684,100,27633.79999995232,29597.700000047684,1059912.0,24,3,animate,in,out
646,307xl96xevy258j,23,17_p_out_out.mp4,1090853.0,25,22526.60000002384,18,27598.699999928474,29408.60000002384,1090853.0,24,17,inanimate,out,out
647,307xl96xevy258j,24,21_a_out_in.mp4,1119666.0,70,23256.39999997616,98,27464.099999904636,28523.099999904636,1119666.0,24,21,animate,out,in
648,307xl96xevy258j,25,17_a_out_out.mp4,1155127.0,54,29590.200000047684,100,33187.200000047684,35190.29999995232,1155127.0,24,17,animate,out,out
649,307xl96xevy258j,26,03_p_in_out.mp4,1174169.0,93,12878.600000023842,10,16662.399999976158,18255.5,1174169.0,24,3,inanimate,in,out
650,307xl96xevy258j,27,22_a_out_in.mp4,1194234.0,68,14462.0,99,17904.600000023842,19262.89999997616,1194234.0,24,22,animate,out,in
651,307xl96xevy258j,28,12_a_in_in.mp4,1227331.0,37,21897.29999995232,95,29352.199999928474,32552.29999995232,1227331.0,24,12,animate,in,in
652,307xl96xevy258j,29,16_p_out_out.mp4,1258067.0,63,17463.0,6,28670.89999997616,30210.39999997616,1258067.0,24,16,inanimate,out,out
653,307xl96xevy258j,30,14_a_out_out.mp4,1283180.0,99,13832.5,97,22924.200000047684,24342.89999997616,1283180.0,24,14,animate,out,out
654,307xl96xevy258j,31,06_a_in_out.mp4,1301776.0,100,12238.0,100,15059.899999976158,16573.299999952316,1301776.0,24,6,animate,in,out
655,307xl96xevy258j,32,05_p_in_out.mp4,1320268.0,94,12202.899999976158,27,16640.199999928474,17688.699999928474,1320268.0,24,5,inanimate,in,out
656,307xl96xevy258j,33,11_a_in_in.mp4,1331380.0,97,6786.899999976158,93,8755.799999952316,10799.099999904633,1331380.0,24,11,animate,in,in
657,307xl96xevy258j,34,12_p_in_in.mp4,1346396.0,67,10833.199999928474,17,12647.299999952316,13960.699999928474,1346396.0,24,12,inanimate,in,in
658,307xl96xevy258j,35,23_p_out_in.mp4,1374712.0,22,21316.60000002384,10,25962.39999997616,27532.39999997616,1374712.0,24,23,inanimate,out,in
659,307xl96xevy258j,36,02_p_in_out.mp4,1390239.0,77,7546.599999904633,12,12051.099999904633,13741.299999952316,1390239.0,24,2,inanimate,in,out
660,307xl96xevy258j,37,04_a_in_out.mp4,1409000.0,100,13616.300000071526,100,15260.800000071526,16978.300000071526,1409000.0,24,4,animate,in,out
661,307xl96xevy258j,38,15_p_out_out.mp4,1422165.0,66,8070.899999976158,15,11669.5,12835.299999952316,1422165.0,24,15,inanimate,out,out
662,307xl96xevy258j,39,13_p_out_out.mp4,1471651.0,59,40731.60000002384,18,46105.0,47687.10000002384,1471651.0,24,13,inanimate,out,out
663,307xl96xevy258j,40,13_a_out_out.mp4,1499673.0,98,22769.199999928474,96,24968.89999997616,26730.0,1499673.0,24,13,animate,out,out
664,307xl96xevy258j,41,18_p_out_out.mp4,1516590.0,78,11311.5,11,14402.600000023842,15855.400000095367,1516590.0,24,18,inanimate,out,out
665,307xl96xevy258j,42,09_p_in_in.mp4,1534273.0,82,12117.599999904633,11,15362.5,17393.399999976158,1534273.0,24,9,inanimate,in,in
666,307xl96xevy258j,43,11_p_in_in.mp4,1572497.0,68,29281.79999995232,11,32118.89999997616,36445.39999997616,1572497.0,24,11,inanimate,in,in
667,307xl96xevy258j,44,06_p_in_out.mp4,1605626.0,80,26902.699999928474,5,30421.60000002384,31581.199999928474,1605626.0,24,6,inanimate,in,out
668,307xl96xevy258j,45,10_a_in_in.mp4,1628822.0,99,16156.100000023842,97,18051.0,21420.39999997616,1628822.0,24,10,animate,in,in
669,307xl96xevy258j,46,20_a_out_in.mp4,1669581.0,86,35119.300000071526,99,38342.0,39707.300000071526,1669581.0,24,20,animate,out,in
670,307xl96xevy258j,47,01_a_in_out.mp4,1697174.0,100,23807.89999997616,100,25212.199999928474,26793.099999904636,1697174.0,24,1,animate,in,out
671,307xl96xevy258j,48,23_a_out_in.mp4,1724052.0,98,22285.099999904636,99,24193.89999997616,26607.39999997616,1724052.0,24,23,animate,out,in
672,njqwqy2uvk45qo4,1,05_a_in_out.mp4,255916.0,100,34953.0,100,91373.60000002384,97390.60000002384,255916.0,25,5,animate,in,out
673,njqwqy2uvk45qo4,2,17_a_out_out.mp4,302091.0,1,31061.39999997616,100,43596.89999997616,45118.30000001192,302091.0,25,17,animate,out,out
674,njqwqy2uvk45qo4,3,02_a_in_out.mp4,382149.0,100,17343.599999964237,100,72428.59999996424,79250.39999997616,382149.0,25,2,animate,in,out
675,njqwqy2uvk45qo4,4,16_p_out_out.mp4,449400.0,69,62844.5,1,35841.40000003576,66196.5,449400.0,25,16,inanimate,out,out
676,njqwqy2uvk45qo4,5,18_a_out_out.mp4,479761.0,1,21222.69999998808,100,26524.39999997616,29836.89999997616,479761.0,25,18,animate,out,out
677,njqwqy2uvk45qo4,6,03_p_in_out.mp4,504403.0,100,19013.89999997616,1,21494.39999997616,23870.5,504403.0,25,3,inanimate,in,out
678,njqwqy2uvk45qo4,7,23_a_out_in.mp4,533753.0,1,17315.0,100,20868.59999996424,27560.0,533753.0,25,23,animate,out,in
679,njqwqy2uvk45qo4,8,19_a_out_in.mp4,580618.0,100,39001.90000003576,100,43223.10000002384,44846.19999998808,580618.0,25,19,animate,out,in
680,njqwqy2uvk45qo4,9,04_a_in_out.mp4,595091.0,100,8986.5,100,11201.80000001192,12658.0,595091.0,25,4,animate,in,out
681,njqwqy2uvk45qo4,10,08_p_in_in.mp4,617639.0,1,11452.0,1,16318.799999952316,21757.69999998808,617639.0,25,8,inanimate,in,in
682,njqwqy2uvk45qo4,11,10_a_in_in.mp4,673323.0,100,41911.10000002384,100,52672.80000001192,54362.39999997616,673323.0,25,10,animate,in,in
683,njqwqy2uvk45qo4,12,10_p_in_in.mp4,699777.0,1,12178.0,1,24139.0,25670.10000002384,699777.0,25,10,inanimate,in,in
684,njqwqy2uvk45qo4,13,01_p_in_out.mp4,736589.0,100,25721.60000002384,1,27910.69999998808,34775.10000002384,736589.0,25,1,inanimate,in,out
685,njqwqy2uvk45qo4,14,13_a_out_out.mp4,771589.0,1,28039.69999998808,100,31744.59999996424,33202.69999998808,771589.0,25,13,animate,out,out
686,njqwqy2uvk45qo4,15,18_p_out_out.mp4,794395.0,1,12535.399999976158,1,20907.59999996424,22255.79999995232,794395.0,25,18,inanimate,out,out
687,njqwqy2uvk45qo4,16,22_p_out_in.mp4,846930.0,1,40786.19999998808,1,50044.19999998808,51241.5,846930.0,25,22,inanimate,out,in
688,njqwqy2uvk45qo4,17,07_a_in_in.mp4,867280.0,1,14483.099999964235,1,16900.30000001192,18322.89999997616,867280.0,25,7,animate,in,in
689,njqwqy2uvk45qo4,18,20_p_out_in.mp4,909628.0,74,38239.59999996424,1,27522.80000001192,40559.19999998808,909628.0,25,20,inanimate,out,in
690,njqwqy2uvk45qo4,19,24_p_out_in.mp4,935673.0,1,12014.600000023842,1,22697.900000035763,23996.0,935673.0,25,24,inanimate,out,in
691,njqwqy2uvk45qo4,20,15_p_out_out.mp4,946868.0,1,7160.100000023842,1,9371.80000001192,10639.899999976158,946868.0,25,15,inanimate,out,out
692,njqwqy2uvk45qo4,21,20_a_out_in.mp4,966466.0,1,11922.5,100,16226.299999952316,17542.19999998808,966466.0,25,20,animate,out,in
693,njqwqy2uvk45qo4,22,06_p_in_out.mp4,995325.0,100,11683.19999998808,1,20905.80000001192,27315.10000002384,995325.0,25,6,inanimate,in,out
694,njqwqy2uvk45qo4,23,17_p_out_out.mp4,1024931.0,1,11915.80000001192,1,14955.399999976158,28299.80000001192,1024931.0,25,17,inanimate,out,out
695,njqwqy2uvk45qo4,24,05_p_in_out.mp4,1047185.0,100,10880.0,1,13638.900000035765,21710.900000035763,1047185.0,25,5,inanimate,in,out
696,njqwqy2uvk45qo4,25,11_a_in_in.mp4,1082975.0,100,30525.5,100,33527.30000001192,35009.89999997616,1082975.0,25,11,animate,in,in
697,njqwqy2uvk45qo4,26,07_p_in_in.mp4,1097601.0,1,8469.0,1,12730.0,14053.19999998808,1097601.0,25,7,inanimate,in,in
698,njqwqy2uvk45qo4,27,22_a_out_in.mp4,1131270.0,1,23696.60000002384,100,30490.69999998808,32102.30000001192,1131270.0,25,22,animate,out,in
699,njqwqy2uvk45qo4,28,14_a_out_out.mp4,1148264.0,100,10783.19999998808,100,13830.799999952316,15456.599999964235,1148264.0,25,14,animate,out,out
700,njqwqy2uvk45qo4,29,03_a_in_out.mp4,1170524.0,100,12781.700000047684,100,18938.700000047684,20209.5,1170524.0,25,3,animate,in,out
701,njqwqy2uvk45qo4,30,14_p_out_out.mp4,1195514.0,100,14390.5,1,22004.89999997616,23916.39999997616,1195514.0,25,14,inanimate,out,out
702,njqwqy2uvk45qo4,31,21_p_out_in.mp4,1229231.0,1,18852.09999996424,1,29719.19999998808,33437.0,1229231.0,25,21,inanimate,out,in
703,njqwqy2uvk45qo4,32,12_p_in_in.mp4,1253472.0,1,15343.80000001192,1,19553.10000002384,23941.80000001192,1253472.0,25,12,inanimate,in,in
704,njqwqy2uvk45qo4,33,09_p_in_in.mp4,1277653.0,100,13252.399999976158,1,16481.100000023842,22638.60000002384,1277653.0,25,9,inanimate,in,in
705,njqwqy2uvk45qo4,34,08_a_in_in.mp4,1295170.0,1,8286.199999988079,1,13822.80000001192,16236.80000001192,1295170.0,25,8,animate,in,in
706,njqwqy2uvk45qo4,35,16_a_out_out.mp4,1340318.0,1,34019.30000001192,100,38084.30000001192,43610.0,1340318.0,25,16,animate,out,out
707,njqwqy2uvk45qo4,36,21_a_out_in.mp4,1384805.0,100,37115.09999996424,100,41650.29999995232,42951.0,1384805.0,25,21,animate,out,in
708,njqwqy2uvk45qo4,37,02_p_in_out.mp4,1420300.0,100,18426.900000035763,1,34029.10000002384,35189.5,1420300.0,25,2,inanimate,in,out
709,njqwqy2uvk45qo4,38,09_a_in_in.mp4,1436785.0,100,12674.899999976158,100,14975.19999998808,16199.100000023842,1436785.0,25,9,animate,in,in
710,njqwqy2uvk45qo4,39,01_a_in_out.mp4,1449663.0,100,7329.5,100,9761.600000023842,11100.600000023842,1449663.0,25,1,animate,in,out
711,njqwqy2uvk45qo4,40,24_a_out_in.mp4,1476035.0,1,20491.19999998808,100,24245.0,25813.29999995232,1476035.0,25,24,animate,out,in
712,njqwqy2uvk45qo4,41,12_a_in_in.mp4,1492124.0,1,9413.19999998808,100,13680.0,15052.5,1492124.0,25,12,animate,in,in
713,njqwqy2uvk45qo4,42,23_p_out_in.mp4,1517434.0,1,14391.100000023842,1,23042.60000002384,24527.19999998808,1517434.0,25,23,inanimate,out,in
714,njqwqy2uvk45qo4,43,11_p_in_in.mp4,1545545.0,100,11002.80000001192,1,24809.5,26316.80000001192,1545545.0,25,11,inanimate,in,in
715,njqwqy2uvk45qo4,44,04_p_in_out.mp4,1558227.0,100,7812.599999964237,1,9720.5,11373.399999976158,1558227.0,25,4,inanimate,in,out
716,njqwqy2uvk45qo4,45,15_a_out_out.mp4,1570349.0,1,6532.400000035763,100,9929.100000023842,11314.900000035765,1570349.0,25,15,animate,out,out
717,njqwqy2uvk45qo4,46,19_p_out_in.mp4,1593449.0,100,8151.5,1,20007.09999996424,21312.69999998808,1593449.0,25,19,inanimate,out,in
718,njqwqy2uvk45qo4,47,06_a_in_out.mp4,1612665.0,100,7343.399999976158,100,15525.899999976158,17917.80000001192,1612665.0,25,6,animate,in,out
719,njqwqy2uvk45qo4,48,13_p_out_out.mp4,1654344.0,1,19320.60000002384,1,39327.40000003576,40857.10000002384,1654344.0,25,13,inanimate,out,out
720,lntq1tu3mh22jor,1,02_p_in_out.mp4,235538.0,100,15549.69999998808,100,21856.89999997616,22711.30000001192,235538.0,26,2,inanimate,in,out
721,lntq1tu3mh22jor,2,20_a_out_in.mp4,247413.0,100,9436.0,100,11090.0,11619.80000001192,247413.0,26,20,animate,out,in
722,lntq1tu3mh22jor,3,03_a_in_out.mp4,265038.0,100,15423.899999976158,100,16390.19999998808,16869.69999998808,265038.0,26,3,animate,in,out
723,lntq1tu3mh22jor,4,14_p_out_out.mp4,332983.0,100,65288.60000002384,100,66397.60000002384,66938.90000003576,332983.0,26,14,inanimate,out,out
724,lntq1tu3mh22jor,5,05_a_in_out.mp4,407246.0,100,70629.89999997616,100,71691.89999997616,72256.5,407246.0,26,5,animate,in,out
725,lntq1tu3mh22jor,6,18_a_out_out.mp4,433030.0,100,5043.5,100,5923.5,23778.80000001192,433030.0,26,18,animate,out,out
726,lntq1tu3mh22jor,7,23_p_out_in.mp4,562422.0,100,125877.0,100,127387.30000001192,127887.10000002384,562422.0,26,23,inanimate,out,in
727,lntq1tu3mh22jor,8,13_p_out_out.mp4,612941.0,100,48617.0,100,49700.30000001192,50260.20000004768,612941.0,26,13,inanimate,out,out
728,lntq1tu3mh22jor,9,23_a_out_in.mp4,742213.0,1,125658.10000002384,99,127357.90000003576,128017.60000002384,742213.0,26,23,animate,out,in
729,lntq1tu3mh22jor,10,15_a_out_out.mp4,750485.0,100,4870.599999964237,100,5860.5,6519.399999976158,750485.0,26,15,animate,out,out
730,lntq1tu3mh22jor,11,12_a_in_in.mp4,865537.0,1,111770.40000003576,100,113208.5,113797.5,865537.0,26,12,animate,in,in
731,lntq1tu3mh22jor,12,22_p_out_in.mp4,887851.0,100,15489.0,100,20102.30000001192,20559.5,887851.0,26,22,inanimate,out,in
732,lntq1tu3mh22jor,13,17_p_out_out.mp4,1025172.0,1,133737.5,100,134713.80000001192,135315.39999997616,1025172.0,26,17,inanimate,out,out
733,lntq1tu3mh22jor,14,16_p_out_out.mp4,1151086.0,1,121556.70000004768,100,122878.0,124159.60000002384,1151086.0,26,16,inanimate,out,out
734,lntq1tu3mh22jor,15,24_a_out_in.mp4,1246346.0,100,92182.10000002384,100,93046.30000001192,93756.0,1246346.0,26,24,animate,out,in
735,lntq1tu3mh22jor,16,17_a_out_out.mp4,1253200.0,1,3774.699999988079,100,4810.600000023842,5600.300000011921,1253200.0,26,17,animate,out,out
736,lntq1tu3mh22jor,17,19_p_out_in.mp4,1260116.0,100,4484.100000023842,100,5414.300000011921,5911.300000011921,1260116.0,26,19,inanimate,out,in
737,lntq1tu3mh22jor,18,11_p_in_in.mp4,1283070.0,1,19756.69999998808,100,21813.0,22450.30000001192,1283070.0,26,11,inanimate,in,in
738,lntq1tu3mh22jor,19,09_p_in_in.mp4,1321223.0,1,33853.30000001192,100,35548.0,36149.70000004768,1321223.0,26,9,inanimate,in,in
739,lntq1tu3mh22jor,20,10_a_in_in.mp4,1350914.0,1,27858.80000001192,100,28878.69999998808,29437.69999998808,1350914.0,26,10,animate,in,in
740,lntq1tu3mh22jor,21,22_a_out_in.mp4,1363271.0,100,10601.400000035765,100,9664.30000001192,11101.700000047684,1363271.0,26,22,animate,out,in
741,lntq1tu3mh22jor,22,08_a_in_in.mp4,1375471.0,1,8648.400000035763,100,10410.200000047684,10946.200000047684,1375471.0,26,8,animate,in,in
742,lntq1tu3mh22jor,23,19_a_out_in.mp4,1387540.0,100,9702.100000023842,100,11023.0,11563.900000035765,1387540.0,26,19,animate,out,in
743,lntq1tu3mh22jor,24,14_a_out_out.mp4,1408193.0,100,16840.299999952316,100,18120.39999997616,18648.5,1408193.0,26,14,animate,out,out
744,lntq1tu3mh22jor,25,02_a_in_out.mp4,1416758.0,1,6259.5,100,7369.5,8061.0,1416758.0,26,2,animate,in,out
745,lntq1tu3mh22jor,26,21_p_out_in.mp4,1427862.0,1,8693.699999988079,100,9757.0,10350.599999964235,1427862.0,26,21,inanimate,out,in
746,lntq1tu3mh22jor,27,09_a_in_in.mp4,1437573.0,1,6236.300000011921,100,7732.399999976158,8707.199999988079,1437573.0,26,9,animate,in,in
747,lntq1tu3mh22jor,28,15_p_out_out.mp4,1456724.0,1,15525.80000001192,100,16540.80000001192,17146.600000023842,1456724.0,26,15,inanimate,out,out
748,lntq1tu3mh22jor,29,24_p_out_in.mp4,1464035.0,1,4631.100000023842,100,6047.100000023842,6555.900000035763,1464035.0,26,24,inanimate,out,in
749,lntq1tu3mh22jor,30,08_p_in_in.mp4,1474836.0,1,8728.800000011921,100,9946.0,10546.600000023842,1474836.0,26,8,inanimate,in,in
750,lntq1tu3mh22jor,31,18_p_out_out.mp4,1485462.0,1,7742.899999976158,100,9242.599999964235,9871.80000001192,1485462.0,26,18,inanimate,out,out
751,lntq1tu3mh22jor,32,03_p_in_out.mp4,1498894.0,100,9534.30000001192,100,10859.5,11427.399999976158,1498894.0,26,3,inanimate,in,out
752,lntq1tu3mh22jor,33,05_p_in_out.mp4,1506130.0,100,4843.600000023842,100,6329.100000023842,6981.199999988079,1506130.0,26,5,inanimate,in,out
753,lntq1tu3mh22jor,34,01_a_in_out.mp4,1520747.0,1,9779.5,100,13635.899999976158,14112.69999998808,1520747.0,26,1,animate,in,out
754,lntq1tu3mh22jor,35,12_p_in_in.mp4,1535719.0,1,12293.80000001192,100,13688.5,14216.599999964235,1535719.0,26,12,inanimate,in,in
755,lntq1tu3mh22jor,36,07_a_in_in.mp4,1544644.0,1,6531.0,100,7975.900000035763,8660.0,1544644.0,26,7,animate,in,in
756,lntq1tu3mh22jor,37,10_p_in_in.mp4,1558341.0,1,10611.600000023842,100,12160.600000023842,12692.600000023842,1558341.0,26,10,inanimate,in,in
757,lntq1tu3mh22jor,38,21_a_out_in.mp4,1570428.0,100,8700.5,100,9699.600000023842,10333.100000023842,1570428.0,26,21,animate,out,in
